time,ax,ay,az,aT
0.0030,-0.4836,-0.4307,-3.1815,3.247
0.0050,-0.4773,-0.5966,-3.7052,3.783
0.0310,-0.4054,-0.7211,-4.2890,4.368
0.0320,-0.2810,-0.8528,-4.5425,4.630
0.0360,-0.0502,-1.0204,-4.3676,4.485
0.1000,0.1176,-1.1794,-4.2705,4.432
0.1020,0.1913,-1.2320,-4.4085,4.581
0.1040,0.1118,-1.1705,-4.3099,4.467
0.1050,0.0394,-1.1309,-4.5490,4.688
0.1100,0.2216,-1.2196,-4.7707,4.929
0.1110,0.6146,-1.6532,-4.5839,4.912
0.1120,1.4856,-2.0272,-4.1881,4.884
0.1140,2.6051,-2.1972,-2.2759,4.098
0.1250,3.5071,-2.1299,0.9821,4.219
0.1580,1.0995,-2.2377,1.7136,3.025
0.1590,-0.6180,-2.6927,-0.1650,2.768
0.1600,-4.9458,-2.3330,-1.5015,5.671
0.2210,-4.3019,-3.3352,-2.9379,6.186
0.2240,-1.4804,-3.3813,-2.7500,4.603
0.2260,0.6924,-2.6537,-2.3175,3.591
0.2280,0.3833,-1.2285,-2.6189,2.918
0.2310,0.6075,-1.3299,-4.8654,5.080
0.2320,-0.0764,-0.8591,-6.0544,6.115
0.2340,-0.6351,0.4233,-6.6824,6.726
0.2350,1.2706,2.7124,-5.2443,6.039
0.2810,3.3526,5.0790,-1.5905,6.290
0.2830,4.8438,5.5076,1.4480,7.476
0.2850,3.5224,3.0413,2.5264,5.295
0.2870,3.1621,0.8950,5.0430,6.019
0.2900,2.7114,0.1636,7.4010,7.884
0.2930,1.6614,0.6907,7.7454,7.952
0.3270,0.7315,2.1870,6.8508,7.229
0.3290,1.1497,3.9027,5.2215,6.619
0.3300,0.3529,4.2076,5.5665,6.987
0.3350,0.8825,5.1251,4.6328,6.965
0.3520,1.8268,5.8575,5.8226,8.459
0.3540,0.3504,6.3261,8.3567,10.487
0.3980,-0.1499,4.1163,10.3155,11.107
0.4000,1.9674,1.9506,10.3422,10.707
0.4030,-0.9891,3.9346,10.3769,11.142
0.4050,-3.2824,1.3411,10.4325,11.019
0.4070,-4.3301,0.0696,10.4862,11.345
0.4550,-3.0831,1.4061,10.5338,11.065
0.4580,-0.7474,1.7303,7.3539,7.592
0.4600,-1.1507,2.1474,8.9968,9.321
0.4620,0.5441,2.8193,9.6724,10.090
0.4640,0.1367,2.1440,7.6183,7.915
0.4650,0.2823,1.6818,2.6215,3.127
0.4730,-0.1693,1.5450,0.5638,1.653
0.4960,-0.2924,2.1298,-0.2145,2.160
0.4980,-1.2199,1.9011,-1.7295,2.845
0.6480,0.0819,1.6855,0.2456,1.705
0.6520,1.8230,0.7783,4.9838,5.364
0.6560,3.1345,0.7372,6.6172,7.359
0.6590,2.7750,1.5406,5.0046,5.926
0.6630,0.9142,2.5709,1.5951,3.161
0.6670,-0.8705,2.9294,-0.4202,3.085
0.6700,-3.0350,1.9660,-0.5024,3.651
0.6750,-2.4419,0.7266,0.5523,2.607
0.6770,-0.9663,-1.1574,0.2091,1.522
0.6790,-0.5401,-2.0750,-1.7236,2.751
0.6820,-2.3980,-3.3060,-2.4710,4.774
0.6850,-1.8661,-2.8700,-0.9378,3.549
0.6880,-0.9966,-3.3839,-0.1475,3.531
0.6910,-0.5234,-3.0258,-0.0698,3.071
0.6930,-0.4700,-3.0524,0.0013,3.088
0.6970,-0.2945,-2.9139,0.2578,2.940
0.6990,-0.2324,-2.5933,-0.6288,2.679
0.7020,-0.5456,-2.8195,-1.9800,3.488
0.7050,-0.8520,-3.0317,-3.7810,4.921
0.7080,-1.3443,-3.3833,-6.3495,7.319
0.7110,-1.2285,-3.2996,-7.6015,8.377
0.7200,-1.7077,-3.0137,-9.5528,10.161
0.7290,-2.0332,-5.2076,-12.1080,13.336
0.7380,-1.9475,-4.8112,-14.5528,15.451
0.7470,-1.6863,-4.7236,-15.0750,15.887
0.7570,-1.1706,-4.2778,-14.2377,14.912
0.7810,-0.7185,-4.0635,-12.9951,13.635
0.7830,-0.4036,-3.9562,-11.5852,12.249
0.7850,-0.4899,-4.0633,-10.6708,11.429
0.7910,-0.5412,-4.2848,-10.1300,11.012
0.8010,-0.3084,-4.3299,-9.6405,10.573
0.8250,-0.2490,-4.2730,-9.3874,10.317
0.8260,-0.5216,-4.6629,-8.8713,10.036
0.8310,0.3798,-4.5570,-9.1757,10.252
0.8800,1.1592,-3.9977,-9.3018,10.191
0.8810,0.4868,-4.1146,-9.4997,10.364
0.8840,-0.3634,-4.6129,-9.1849,10.285
0.8880,-0.8588,-4.6266,-9.1321,10.273
0.8910,-1.9635,-4.6964,-8.9985,10.339
0.8950,-2.4130,-4.6654,-8.7094,10.171
0.9370,-2.0212,-4.4957,-8.5601,9.878
0.9400,-0.6024,-4.2891,-8.8928,9.891
0.9420,0.4658,-4.5948,-8.8712,10.001
0.9430,1.1842,-4.6355,-8.4532,9.713
0.9450,1.3405,-4.8867,-7.7163,9.231
0.9500,1.0641,-5.1303,-9.1286,10.525
1.0240,0.8184,-4.1509,-11.7959,12.532
1.0260,0.8005,-2.9801,-13.2022,13.558
1.0280,0.7464,-1.3485,-13.6007,13.688
1.0290,0.0394,1.0314,-11.9795,12.024
1.0310,-1.0567,1.1452,-8.4658,8.608
1.0320,-0.8414,1.7116,-3.6688,4.135
1.0330,0.5649,2.5945,1.8110,3.214
1.0350,0.5109,1.4581,8.5409,8.680
1.0560,0.7666,1.5172,10.5078,10.644
1.0590,-0.6855,-0.0335,10.3618,10.385
1.0610,-1.3310,-2.3234,10.2369,10.581
1.0690,-0.5104,-2.9295,10.1309,10.558
1.1260,-0.2072,-0.9335,10.0471,10.092
1.1280,-1.3105,1.3267,9.9887,10.161
1.1300,-1.9343,3.6493,9.9545,10.777
1.1310,-1.4493,5.3696,9.9403,11.390
1.1330,-1.3536,6.7209,9.9400,12.075
1.1350,-0.8736,7.4343,9.9482,12.450
1.1780,-0.9564,7.2818,9.9610,12.376
1.1800,-0.9823,6.8364,9.9768,12.134
1.1820,-0.9313,6.0724,9.9947,11.732
1.1850,-0.6576,5.4693,10.0149,11.430
1.1890,-0.5955,4.8231,10.0393,11.154
1.1920,-0.5212,3.9883,10.0680,10.842
1.2320,-0.2385,3.1134,8.0722,8.655
1.2350,0.0485,2.1897,5.8547,6.251
1.2380,0.2562,1.1270,4.5171,4.663
1.2400,0.8219,0.3831,1.7749,1.993
1.2470,1.4878,-0.2913,0.9109,1.769
1.2490,1.1230,-1.4788,0.2363,1.872
1.3110,1.0778,-2.4676,-0.9976,2.872
1.3130,0.9841,-3.5974,-2.7351,4.625
1.3150,0.5492,-4.7950,-4.4056,6.535
1.3180,0.1491,-6.1961,-6.1102,8.703
1.3210,-0.0135,-7.1618,-7.4759,10.353
1.3230,-0.1852,-7.7465,-8.6814,11.637
1.3250,-0.2471,-8.1115,-9.9746,12.859
1.3290,-0.4420,-8.4152,-11.2365,14.045
1.3570,-0.4816,-8.3734,-12.6010,15.137
1.3600,-0.5028,-8.1663,-14.0857,16.289
1.3640,-0.5315,-8.0902,-15.5044,17.496
1.3730,-0.6385,-7.9581,-16.3933,18.234
1.4390,-0.6800,-7.8220,-17.0422,18.764
1.4420,-0.6881,-7.6574,-17.6158,19.220
1.4440,-0.7204,-7.6501,-18.0790,19.644
1.4460,-0.7521,-7.6898,-18.1261,19.704
1.4480,-0.8349,-7.7743,-17.5622,19.224
1.4510,-0.8302,-8.0001,-16.8293,18.653
1.4530,-0.7961,-8.2054,-15.8582,17.873
1.4560,-0.7075,-8.2367,-14.8337,16.982
1.4580,-0.7756,-8.2195,-13.8503,16.124
1.4820,-0.7881,-8.1742,-12.9891,15.367
1.4850,-0.9371,-8.0526,-12.3976,14.813
1.4900,-1.1475,-7.8904,-11.9602,14.374
1.4970,-1.2755,-7.7778,-11.6166,14.038
1.5410,-1.4157,-7.6889,-11.2194,13.675
1.5440,-1.6334,-7.7451,-10.7982,13.389
1.5460,-0.9674,-7.0854,-10.5543,12.749
1.5480,-0.7087,-6.2539,-11.2483,12.889
1.5540,-1.1180,-5.7221,-11.7103,13.081
1.5570,-1.7052,-5.5757,-12.2649,13.580
1.5920,-1.7629,-5.4854,-12.7450,13.987
1.5940,-1.1856,-6.0025,-12.2380,13.682
1.5960,0.9354,-5.8761,-8.4764,10.356
1.5980,3.6360,-4.8378,-1.0228,6.138
1.6280,7.3739,-4.3558,10.6002,13.628
1.6300,5.6717,-3.1840,10.4011,12.267
1.6350,1.7390,-2.7263,10.2237,10.723
1.6370,-1.0388,-2.2999,10.0956,10.406
1.7250,-1.1776,-0.6606,9.9616,10.053
1.7290,-2.0862,-0.1531,9.9616,10.179
1.7310,-2.0010,1.6138,9.8987,10.227
1.7360,-1.4588,3.1464,9.8893,10.480
1.7390,-0.6273,4.7923,9.8955,11.013
1.7410,0.0803,6.1015,9.9142,11.642
1.7450,0.5037,6.5391,9.9397,11.908
1.7470,1.9879,6.6986,9.9676,12.173
1.7510,3.0982,6.6828,9.9877,12.410
1.7560,2.5252,5.6014,10.0000,11.737
1.7590,1.0868,4.4106,10.0084,10.991
1.7630,0.1012,3.4876,10.0200,10.610
1.7670,-0.0198,2.5410,10.0379,10.355
1.8160,0.1544,1.7575,10.0615,10.215
1.8210,0.1661,1.0481,10.0888,10.144
1.8260,0.0935,0.4584,9.4054,9.417
1.8300,0.1621,-0.0542,7.8448,7.847
1.8340,0.5200,-0.6405,6.2261,6.280
1.8380,0.6609,-1.1630,5.2392,5.407
1.8410,0.5334,-1.5952,4.0894,4.422
1.8460,0.3295,-1.8845,2.2707,2.969
1.8820,0.0247,-2.5742,-0.0949,2.576
1.8850,-0.1721,-3.3152,-2.4257,4.111
1.8870,-0.3181,-4.2305,-5.4213,6.884
1.8880,-0.3258,-4.3593,-7.8805,9.012
1.9320,-0.3827,-4.9985,-9.9387,11.131
1.9360,-0.3729,-4.9108,-12.1813,13.139
1.9380,-0.6656,-5.2278,-13.9611,14.923
1.9400,-0.8285,-5.0822,-15.4825,16.316
1.9420,-1.0172,-4.9771,-16.2669,17.042
1.9450,-1.2516,-5.6194,-16.7180,17.681
1.9700,-1.5398,-5.7624,-17.6076,18.590
1.9730,-1.8419,-5.2684,-17.1363,18.022
1.9750,-1.9092,-5.6848,-16.7216,17.764
2.0640,-2.0573,-5.7890,-16.3662,17.481
2.0680,-1.8030,-5.9134,-15.8750,17.036
2.0700,-1.8051,-5.9164,-15.3513,16.551
2.0740,-1.6071,-5.9612,-14.8761,16.106
2.0770,-1.7015,-6.1926,-14.4269,15.792
2.0790,-1.7410,-6.2011,-13.8852,15.306
2.0820,-1.8710,-6.2938,-13.4184,14.939
2.0860,-1.9388,-6.4503,-12.8134,14.476
2.0880,-1.8867,-6.4838,-12.2960,14.028
2.0910,-1.7697,-6.4881,-11.8121,13.592
2.0950,-1.7199,-6.3963,-11.3200,13.115
2.0980,-1.7104,-6.2911,-11.2006,12.960
2.1040,-1.6422,-6.2003,-10.8320,12.589
2.1290,-1.4563,-6.0625,-10.1984,11.953
2.1310,-1.1308,-5.6477,-8.7419,10.469
2.1330,-0.9696,-5.0379,-7.0373,8.709
2.1470,-0.6960,-4.5183,-5.6931,7.301
2.1950,-0.4256,-4.0183,-4.1153,5.767
2.1970,0.0497,-3.9553,-1.8877,4.383
2.1980,0.1365,-2.4169,-1.3885,2.791
2.2000,-0.0395,-2.1617,-1.7078,2.755
2.2020,-0.0457,-1.8983,-0.7941,2.058
2.2040,0.5870,-2.2121,5.3851,5.851
2.2420,1.0980,-3.3437,10.0944,10.690
2.2480,1.4493,-4.0633,10.0184,10.908
2.2490,1.5818,-3.6670,9.9568,10.728
2.2510,1.1272,-3.1045,9.9129,10.449
2.2530,-0.2918,-2.9763,9.8850,10.327
2.2740,-1.2532,-2.2362,9.8668,10.194
2.2760,-1.1072,-0.9072,9.8613,9.965
2.2830,-0.9571,0.6049,9.8660,9.931
2.3750,-0.5345,1.9457,9.8787,10.083
2.3780,0.4312,2.9934,9.8959,10.348
2.3790,1.2354,3.6675,9.9144,10.643
2.3820,2.8388,3.7305,9.9332,10.984
2.3840,1.5257,4.6470,9.9486,11.086
2.3860,2.2779,3.8542,9.9643,10.924
2.3880,2.0946,3.5600,9.9795,10.801
2.3900,1.2970,2.9299,9.9948,10.496
2.3920,1.1388,2.5194,10.0124,10.387
2.3950,0.8689,2.0171,9.4270,9.680
2.3970,0.6071,1.2976,8.4999,8.620
2.4350,0.1246,0.5506,7.4120,7.433
2.4380,-0.1801,-0.1237,6.4530,6.457
2.4390,-0.2175,-0.6465,6.0981,6.136
2.4430,-0.0966,-1.1093,6.0863,6.187
2.4470,-0.0685,-1.7259,5.9534,6.199
2.4920,-0.0064,-2.3450,5.2631,5.762
2.4940,-0.1727,-2.9364,4.1289,5.070
2.4970,-0.5303,-3.5648,2.3722,4.315
2.4980,-1.1339,-3.9578,0.0732,4.118
2.5000,-1.5022,-4.3238,-2.4793,5.206
2.5020,-1.5361,-4.6852,-5.2321,7.189
2.5580,-1.6859,-5.2257,-7.6335,9.403
2.5600,-1.6175,-5.6179,-9.6677,11.298
2.5610,-1.2738,-5.8302,-11.8687,13.285
2.5640,-0.9141,-6.1018,-14.5225,15.779
2.5660,-0.5033,-5.9330,-16.7629,17.789
2.5680,-1.5642,-7.1856,-19.6338,20.966
2.5700,-1.4484,-5.9720,-20.9271,21.811
2.6060,-1.7621,-5.9387,-21.2731,22.157
2.6080,-1.6374,-5.9396,-20.9083,21.797
2.6100,-1.3619,-5.8178,-19.9704,20.845
2.6120,-1.0365,-5.8882,-19.0197,19.937
2.6760,-0.6333,-6.0159,-17.7791,18.780
2.6810,-0.2174,-5.9796,-16.6019,17.647
2.6850,-0.5723,-6.3807,-15.1926,16.488
2.6870,-0.5751,-6.4100,-14.0703,15.472
2.6890,-0.6089,-6.5166,-12.9233,14.486
2.6910,-0.5262,-6.8890,-12.1184,13.950
2.6930,-0.5707,-6.8764,-11.2841,13.227
2.6970,-0.5665,-7.0043,-10.6218,12.736
2.7000,-0.8206,-6.9518,-10.2563,12.417
2.7250,-1.1378,-6.7737,-9.8395,12.000
2.7270,-0.9697,-6.6272,-9.3236,11.480
2.7830,-1.3016,-6.4186,-9.0580,11.178
2.7850,-1.3612,-5.9015,-8.1150,10.126
2.7860,-1.2529,-5.5402,-6.6781,8.767
2.7880,-0.8363,-5.0448,-5.0509,7.188
2.7890,-0.9417,-3.9752,-3.6113,5.453
2.7910,-1.4975,-3.2189,-2.7957,4.519
2.7920,-1.9730,-2.7509,-2.2137,4.045
2.8080,-1.4788,-2.3215,-0.7326,2.848
2.8090,-0.2930,-2.0326,2.3226,3.100
2.8570,0.5048,-1.9980,7.9595,8.222
2.8580,1.3899,-2.4091,9.9540,10.335
2.8590,0.8640,-2.3363,9.9027,10.211
2.8630,-0.3540,-1.5105,9.8665,9.988
2.8640,-1.3313,-1.1392,9.8429,9.998
2.8970,-1.6585,-1.3113,9.8269,10.052
2.8980,-2.0942,-1.1729,9.8164,10.106
2.9000,-2.6995,-0.2320,9.8088,10.176
2.9010,-2.6918,0.8666,9.8098,10.209
2.9090,-2.6352,1.7891,9.8136,10.318
2.9190,-3.2172,2.9854,9.8210,10.757
2.9440,-2.3756,3.5753,9.8323,10.729
2.9450,-1.8799,3.7592,9.6887,10.561
2.9480,-1.0942,3.6810,9.4075,10.161
2.9580,-0.3045,2.8331,9.8770,10.280
2.9830,0.0868,2.0064,9.8788,10.081
2.9840,0.3402,1.0846,9.6719,9.738
2.9880,0.5402,0.1661,9.3947,9.412
3.0000,0.3976,-0.3046,8.8423,8.856
3.0080,0.8282,-0.6345,7.5488,7.621
3.0260,0.5573,-0.9454,5.9434,6.044
3.0290,0.3667,-1.3216,3.8355,4.073
3.0380,0.3605,-1.7375,1.5400,2.350
3.1030,0.4825,-2.1768,-0.1879,2.238
3.1060,0.5844,-2.6034,-1.2513,2.947
3.1080,0.5862,-2.9350,-2.1920,3.710
3.1100,0.2952,-3.3944,-3.1944,4.670
3.1110,0.0157,-3.8551,-4.2949,5.771
3.1130,-0.4041,-4.4071,-5.4466,7.018
3.1150,-0.7025,-5.0135,-6.8081,8.484
3.1220,-0.8328,-5.4548,-8.2024,9.886
3.1280,-1.0000,-5.7183,-9.7994,11.390
3.1390,-1.1062,-5.9762,-11.3793,12.901
3.1640,-1.1529,-5.9533,-13.0078,14.352
3.1670,-1.2427,-5.8401,-15.0512,16.192
3.1690,-1.3122,-5.7668,-16.1583,17.207
3.2250,-1.4058,-5.6883,-16.5334,17.541
3.2280,-1.5387,-5.6943,-16.4444,17.470
3.2300,-1.8254,-5.4121,-16.1425,17.123
3.2310,-1.7544,-5.4045,-15.6118,16.614
3.2330,-1.6509,-5.5728,-15.1220,16.200
3.2360,-1.6015,-5.5432,-14.6071,15.705
3.2380,-1.4915,-5.5500,-13.9779,15.113
3.2480,-1.4014,-5.5745,-13.4189,14.598
3.2610,-1.4202,-5.5826,-13.4111,14.596
3.2840,-1.1213,-5.6559,-12.6805,13.930
3.2870,-1.0140,-5.6563,-12.5047,13.762
3.2890,-1.1296,-5.6786,-12.3692,13.657
3.3490,-1.1886,-5.5563,-12.3563,13.600
3.3510,-1.1010,-5.2396,-12.3029,13.417
3.3530,-1.1217,-4.7203,-12.0180,12.960
3.3540,-1.1548,-4.3012,-11.9102,12.716
3.3560,-1.0802,-3.9185,-11.2058,11.920
3.3570,-1.2407,-3.5914,-9.6953,10.413
3.3600,-1.5925,-3.1105,-7.0102,7.833
3.3750,-1.5645,-1.9422,-3.0176,3.915
3.3770,-1.4963,-1.1832,2.1123,2.846
3.3860,-1.5275,-1.1322,7.5910,7.825
3.4230,-1.9374,-0.9118,10.0936,10.318
3.4260,0.6205,-0.6572,10.0505,10.091
3.4270,1.2965,-1.5179,10.0293,10.226
3.4290,-1.3846,-3.2183,10.0112,10.607
3.4480,-5.5641,-4.4847,9.9828,12.277
3.4500,-5.7709,-5.6955,9.9409,12.828
3.4570,-2.2077,-4.6733,9.8974,11.166
3.5000,0.5439,-2.9010,9.8639,10.296
3.5010,1.2906,-0.3848,9.8447,9.936
3.5020,0.2069,2.1602,9.8406,10.077
3.5030,-1.1430,4.4164,9.8536,10.858
3.5050,-1.6871,6.0609,7.5969,9.864
3.5220,-1.9861,7.2550,4.7781,8.911
3.5440,-1.8232,6.7124,5.0503,8.596
3.5450,-1.7166,4.8332,6.7383,8.468
3.5460,-1.6658,3.0866,8.6684,9.351
3.5550,-1.5216,1.5854,9.9707,10.210
3.6000,-1.3329,0.5030,9.9721,10.073
3.6020,-1.2544,-0.1845,9.1343,9.222
3.6040,-1.0601,-0.9635,7.3171,7.456
3.6060,-0.7882,-1.6922,5.3401,5.657
3.6070,-0.4910,-2.3792,3.1522,3.980
3.6150,-0.3743,-3.2850,0.7949,3.400
3.6430,-0.5874,-4.2541,-1.3766,4.510
3.6450,-0.8843,-5.1216,-3.0353,6.019
3.6470,-1.0618,-5.5942,-4.8204,7.461
3.6570,-0.8181,-5.8625,-6.9801,9.152
3.6900,-0.3541,-6.1314,-8.6371,10.598
3.6940,0.1556,-6.2783,-9.8845,11.711
3.6960,0.4176,-6.1705,-10.8847,12.519
3.6990,0.3784,-5.7196,-12.1384,13.424
3.7050,0.3777,-4.9503,-13.7180,14.589
3.7150,0.6793,-3.9782,-15.0188,15.552
3.7460,1.4072,-3.4711,-16.2191,16.646
3.7490,0.8120,-3.9330,-17.9060,18.351
3.7510,0.8053,-3.4291,-19.1334,19.455
3.7540,0.2828,-3.6381,-20.0800,20.409
3.7970,-0.3821,-4.4500,-20.8362,21.310
3.7990,-1.2143,-5.0116,-20.5577,21.195
3.8010,-1.3151,-5.0018,-19.6608,20.330
3.8040,-1.1154,-5.2555,-18.1270,18.906
3.8070,-1.1897,-5.4892,-16.3204,17.260
3.8150,-1.3624,-5.5854,-14.1002,15.227
3.8730,-1.2855,-5.2205,-11.2565,12.475
3.8770,-1.0869,-4.7466,-9.1085,10.328
3.8790,-0.9695,-4.6734,-7.9874,9.305
3.8800,-1.1737,-4.7210,-7.5070,8.945
3.8820,-1.3672,-4.7874,-6.8659,8.481
3.8840,-1.7120,-4.8197,-6.4219,8.210
3.9260,-1.6794,-4.8406,-6.3188,8.135
3.9280,-1.1028,-4.4559,-5.8034,7.399
3.9300,-0.7292,-3.6650,-4.6394,5.957
3.9320,-1.0798,-2.7049,-3.6481,4.668
3.9340,-1.3792,-1.8944,-3.1597,3.934
3.9370,-1.5064,-1.3679,-3.0911,3.701
3.9440,-1.3300,-1.5933,-3.0554,3.694
3.9540,-1.2406,-2.2490,-2.1976,3.380
3.9740,-0.8300,-2.1384,0.3157,2.315
3.9760,0.0977,-0.7770,4.6654,4.731
3.9840,0.9254,0.4586,8.4402,8.503
4.0420,0.3142,-0.6601,9.8149,9.842
4.0440,-1.1927,-3.9229,9.8087,10.631
4.0460,-2.4516,-7.6196,9.8148,12.665
4.0470,0.2825,-8.0536,9.8718,12.743
4.0490,2.0818,-7.8172,9.8718,12.763
4.0500,2.8157,-5.4013,9.9058,11.629
4.0530,1.3459,-2.4311,9.9298,10.311
4.0740,2.5558,0.0219,9.9354,10.259
4.0760,2.4862,2.2159,9.9285,10.472
4.0870,2.0697,3.6219,9.9168,10.758
4.1220,2.0094,3.7521,9.9045,10.780
4.1240,1.9862,3.6133,9.8940,10.719
4.1260,1.7649,2.9289,9.8761,10.451
4.1280,1.2224,1.9663,9.8680,10.136
4.1320,0.3831,0.8067,9.8605,9.901
4.1640,-0.2892,-0.2439,9.8541,9.861
4.1660,-0.6644,-1.1500,9.8496,9.939
4.1680,-1.1064,-1.9324,7.8463,8.156
4.2280,-1.2747,-2.5464,5.7643,6.429
4.2300,-0.8910,-3.0183,3.6513,4.820
4.2320,-1.0737,-3.4616,1.5559,3.944
4.2340,-1.7118,-3.4738,-1.3490,4.101
4.2350,-0.6162,-3.9746,-3.4903,5.325
4.2360,-0.5036,-4.3978,-5.5951,7.134
4.2390,-1.0876,-4.4211,-7.3659,8.659
4.2420,-1.3711,-4.7260,-8.7939,10.077
4.2530,-1.4744,-4.9419,-10.1845,11.416
4.2880,-1.5323,-5.0480,-11.5247,12.675
4.2930,-1.6403,-5.0997,-13.0842,14.138
4.2960,-1.6387,-5.0587,-14.8895,15.811
4.2990,-2.0113,-5.1532,-16.3688,17.278
4.3020,-2.5252,-5.0382,-17.6244,18.504
4.3830,-2.7663,-4.9017,-18.6339,19.465
4.3850,-2.8166,-5.0065,-19.1510,19.994
4.3880,-2.8254,-5.1754,-18.6941,19.602
4.3910,-2.6778,-5.3659,-17.9830,18.957
4.3930,-2.6477,-5.4766,-17.1079,18.157
4.3950,-2.7524,-5.5427,-16.4352,17.562
4.3970,-2.8803,-5.5753,-15.8717,17.067
4.4000,-3.1224,-5.5622,-15.5204,16.780
4.4020,-3.3398,-5.5949,-15.1496,16.491
4.4050,-3.5547,-5.5800,-14.8453,16.253
4.4270,-3.6164,-5.7245,-14.4973,16.001
4.4310,-3.6266,-5.8292,-14.0627,15.649
4.4330,-3.4283,-5.7221,-13.4194,14.986
4.5130,-2.9374,-5.5060,-12.7019,14.152
4.5320,-2.7040,-5.3628,-11.0435,12.571
4.5340,-2.9028,-5.0414,-8.6956,10.462
4.5360,-3.1672,-4.6385,-6.4827,8.577
4.5370,-2.7679,-4.0563,-4.5122,6.669
4.5390,-2.1683,-3.1028,-2.0382,4.299
4.5400,-0.8487,-2.0242,-0.1344,2.199
4.5440,0.9870,-1.0033,2.2421,2.647
4.5460,2.2944,-1.0091,7.0458,7.478
4.5480,3.2652,-1.0129,9.9372,10.509
4.5500,3.6769,-0.3959,9.8938,10.562
4.5540,2.7431,-0.2975,9.8651,10.244
4.5650,0.8637,-1.4797,9.8458,9.994
4.5710,0.1054,-2.5421,9.8330,10.157
4.5950,1.1240,-2.4132,9.8256,10.180
4.5970,2.4282,-1.3656,9.8256,10.213
4.6020,2.2930,0.1937,9.8317,10.097
4.6430,1.8035,2.4048,9.8451,10.294
4.6450,0.9043,4.4888,9.8658,10.877
4.6480,0.6039,5.6313,6.0935,8.319
4.6490,-0.8285,7.3423,3.8060,8.312
4.6510,-0.4396,7.4279,5.0881,9.014
4.6730,-0.2262,5.6265,7.2260,9.161
4.6750,-0.6769,3.7752,9.0378,9.818
4.6800,-0.5748,2.1264,9.9629,10.204
4.7470,0.0974,0.7416,9.9599,9.988
4.7480,0.5257,-0.3347,9.9578,9.977
4.7490,0.3861,-1.2313,9.9587,10.042
4.7510,-0.1088,-1.9959,9.9620,10.161
4.7520,-0.3246,-2.7872,7.9849,8.464
4.7540,-0.5781,-3.4088,5.7291,6.692
4.7550,-0.7490,-3.7417,3.4216,5.125
4.7600,-0.7351,-3.7823,1.5481,4.152
4.7690,-0.6760,-3.9036,0.1877,3.966
4.7900,-0.6003,-3.7816,-0.8690,3.926
4.7910,-0.6078,-3.5875,-1.9895,4.147
4.7990,-0.8876,-3.4713,-3.6094,5.086
4.8750,-1.1613,-3.3743,-5.7572,6.774
4.8780,-1.5449,-3.2165,-7.9957,8.756
4.8790,-1.5565,-3.2208,-10.1806,10.791
4.8820,-1.5058,-3.2418,-12.1259,12.642
4.8850,-1.4227,-3.2787,-13.5509,14.014
4.8940,-1.2504,-3.2280,-14.7242,15.126
4.8970,-1.0840,-3.2036,-15.3164,15.685
4.8990,-1.0290,-3.0760,-15.4420,15.779
4.9030,-1.0671,-2.9451,-15.4733,15.787
4.9050,-1.2406,-2.9223,-15.5870,15.907
4.9360,-1.2904,-2.8521,-15.6143,15.925
4.9380,-1.2915,-2.8737,-15.5147,15.831
4.9400,-1.2574,-2.8925,-15.3371,15.658
4.9440,-1.2732,-2.9840,-15.2007,15.543
4.9480,-1.3061,-3.1870,-15.1434,15.530
4.9580,-1.2730,-3.3485,-14.8626,15.288
4.9680,-1.1719,-3.4961,-14.1969,14.668
4.9840,-1.1737,-3.6401,-13.2661,13.806
4.9870,-1.1895,-3.7725,-12.2029,12.828
4.9980,-1.1196,-4.0246,-10.8701,11.645
5.0310,-1.1314,-4.2199,-9.4808,10.439
5.0330,-1.3856,-4.2403,-8.4335,9.541
5.0340,-1.4095,-4.2867,-7.7499,8.968
5.0370,-1.1657,-4.1651,-6.7074,7.981
5.0580,-0.9333,-3.6380,-5.3762,6.558
5.0590,-0.7904,-2.9248,-4.5662,5.480
5.0670,-0.5661,-2.2139,-4.0391,4.641
5.0990,-0.4181,-1.3357,-2.7374,3.074
5.1010,-0.3947,-0.6858,-0.4355,0.903
5.1020,-0.1281,-0.5099,1.8927,1.964
5.1070,0.7431,-0.7167,4.6904,4.803
5.1170,1.7561,-0.9329,7.9120,8.158
5.1320,2.5716,-1.1856,9.9399,10.335
5.1360,2.7905,-1.3719,9.9167,10.393
5.1750,2.4827,-1.7678,9.8967,10.355
5.1780,1.5586,-2.6296,9.8772,10.339
5.1790,0.5378,-3.2672,9.8566,10.398
5.1800,0.7559,-3.8106,9.8382,10.577
5.1890,0.1540,-3.2779,9.8251,10.359
5.1960,-0.7194,-2.1709,9.8178,10.081
5.2060,-0.9642,-0.8953,9.8146,9.902
5.2160,-0.7525,0.5140,9.8140,9.856
5.2330,-0.0330,1.9281,9.8151,10.003
5.2380,1.1433,3.5456,9.8215,10.504
5.2460,1.5264,4.0945,9.8215,10.750
5.2670,2.0177,4.7859,9.8255,11.114
5.2680,1.8746,4.7147,9.8290,11.061
5.2760,1.3049,4.1090,9.8314,10.735
5.2860,1.2457,3.3552,9.8339,10.465
5.2950,0.9257,2.7836,9.8374,10.265
5.3060,0.9771,2.2581,9.8421,10.145
5.3160,1.0420,1.6437,9.8483,10.039
5.3330,0.8156,1.0049,9.4110,9.500
5.3360,0.5403,0.3310,8.2102,8.235
5.3450,0.4123,-0.2269,6.3499,6.367
5.3710,0.2835,-0.8834,4.4709,4.566
5.3720,-0.1056,-1.4177,3.1507,3.457
5.3760,-0.4985,-1.8762,1.8606,2.689
5.3860,-0.7983,-2.1982,0.2678,2.354
5.3950,-1.0227,-2.5778,-1.4424,3.126
5.4050,-1.3151,-2.9916,-3.2175,4.586
5.4150,-1.5942,-3.3918,-4.9954,6.245
5.4330,-1.7254,-3.8124,-6.8745,8.048
5.4350,-1.7606,-4.0221,-8.7967,9.831
5.4460,-1.8195,-4.1369,-10.5082,11.439
5.5950,-1.6155,-4.1356,-11.9706,12.767
5.6040,-1.4055,-4.0905,-13.0882,13.784
5.6150,-1.3364,-3.9810,-13.9549,14.573
5.6180,-1.4032,-3.9199,-14.5901,15.173
5.6230,-1.4606,-4.0251,-14.9827,15.583
5.6260,-1.6080,-4.1251,-15.3052,15.933
5.6340,-1.7020,-4.2471,-15.5023,16.163
5.6370,-1.6987,-4.3523,-15.5565,16.243
5.6410,-1.6808,-4.4451,-15.7094,16.412
5.6450,-1.6760,-4.4821,-15.8090,16.517
5.6490,-1.8147,-4.5668,-15.6905,16.442
5.6530,-1.8927,-4.5673,-15.5330,16.301
5.6560,-1.9878,-4.5736,-15.1882,15.986
5.6600,-2.2410,-4.5155,-14.8054,15.640
5.6650,-2.3814,-4.4953,-14.3916,15.264
5.6690,-2.3303,-4.3364,-13.8678,14.716
5.6730,-2.1773,-4.0959,-12.7764,13.592
5.6780,-1.8320,-3.7046,-11.3344,12.064
5.6820,-1.9291,-3.1409,-9.8411,10.509
5.6860,-2.3205,-2.5159,-8.1379,8.828
5.6890,-2.4021,-1.8649,-6.3274,7.020
5.6930,-2.3933,-1.2432,-4.4623,5.214
5.6960,-2.7769,-0.6031,-2.1964,3.592
5.7000,-2.4205,0.1801,-0.2078,2.436
5.7030,-1.7449,0.3843,0.6448,1.899
5.7040,-0.6116,0.1080,3.6945,3.746
5.7160,-0.2638,-0.1604,9.8724,9.877
5.7290,0.9200,-0.3343,9.8439,9.892
5.7650,1.1782,-1.5646,9.8245,10.018
5.7670,0.5843,-2.8440,9.8130,10.234
5.7680,-0.0444,-3.7680,9.8077,10.507
5.7700,-0.2496,-3.3786,9.8062,10.375
5.7740,0.6700,-2.6529,9.8063,10.181
5.8160,1.3314,-1.6358,9.8061,10.030
5.8180,1.7313,-0.2520,9.8064,9.961
5.8190,1.5365,1.3507,9.8090,10.020
5.8210,1.9008,3.1465,9.8154,10.481
5.8230,1.7453,4.2784,8.4200,9.605
5.8640,1.1977,4.7270,8.3104,9.635
5.8660,0.8301,4.5668,9.1014,10.217
5.8670,0.6092,3.8069,9.8499,10.578
5.8680,-0.0560,2.6571,9.8536,10.206
5.8730,-0.8972,1.5276,9.8556,10.014
5.8970,-2.0005,0.2013,8.4230,8.660
5.8990,-2.8167,-0.5430,6.6833,7.273
5.9700,-3.3935,-1.4834,4.6950,5.980
5.9720,-3.7535,-2.6264,1.8450,4.939
5.9770,-3.3930,-3.3983,-1.3755,4.995
5.9810,-2.1582,-3.6140,-4.1967,5.944
5.9860,-0.7455,-3.2676,-6.5021,7.315
5.9900,0.0125,-2.6714,-8.0654,8.496
5.9940,0.2693,-2.2724,-8.2198,8.532
5.9980,1.1832,-1.2144,-8.5060,8.673
6.0030,1.8598,-2.0639,-8.0632,8.528
6.0070,0.9000,-1.9397,-7.0804,7.396
6.0120,0.0526,-1.8661,-6.2764,6.548
6.0160,-0.1287,-1.7722,-7.0779,7.298
6.0480,-0.1313,-2.0984,-9.0041,9.246
6.0500,-0.7469,-2.5401,-10.3654,10.698
6.0530,-1.6764,-3.1871,-12.1274,12.651
6.0550,-2.5100,-3.6676,-13.6134,14.320
6.0650,-3.0013,-3.8675,-14.4794,15.285
6.1160,-3.2775,-4.0681,-14.7846,15.680
6.1180,-3.4146,-4.3177,-14.7653,15.758
6.1200,-3.5138,-4.3043,-14.3089,15.350
6.1230,-3.6030,-4.3417,-13.5922,14.717
6.1240,-3.5419,-4.5305,-12.7661,14.002
6.1260,-3.3629,-4.6688,-11.9743,13.285
6.1460,-2.9889,-4.6864,-11.2801,12.575
6.1480,-2.5545,-4.7158,-10.7915,12.051
6.1510,-2.2149,-4.5704,-10.4823,11.648
6.1620,-1.9227,-4.2557,-10.5207,11.511
6.2340,-1.8466,-3.9643,-10.5323,11.404
6.2380,-1.8028,-3.5311,-10.5389,11.260
6.2410,-1.8005,-3.1918,-10.4075,11.034
6.2460,-1.7656,-2.8899,-9.6480,10.225
6.2480,-1.7446,-2.5326,-8.1263,8.689
6.2510,-1.7684,-2.0962,-6.9215,7.445
6.2540,-1.7617,-1.6736,-6.2691,6.724
6.2560,-1.9100,-1.2457,-5.6469,6.090
6.2590,-1.1746,-0.8637,-4.4557,4.688
6.2620,0.0810,-0.2279,-3.0305,3.040
6.2730,0.3457,0.0023,-0.4687,0.582
6.2880,0.4926,0.7542,1.4789,1.732
6.2910,0.1558,0.3946,5.1882,5.205
6.3180,0.4480,-0.6687,9.9561,9.989
6.3200,1.4569,-1.3213,9.9251,10.118
6.3220,1.6900,-2.7940,9.8946,10.419
6.3640,1.1655,-3.8973,9.8664,10.672
6.3660,2.4129,-2.9750,9.8443,10.563
6.3680,2.7318,-1.2156,9.8288,10.274
6.3700,2.2926,0.6984,9.8240,10.112
6.3710,2.4731,2.5800,9.8288,10.458
6.4140,0.4025,4.6035,9.8419,10.873
6.4150,-1.2152,5.8572,9.8625,11.535
6.4170,-1.6825,5.9867,9.8867,11.680
6.4190,-1.7232,5.3708,9.9104,11.403
6.4210,-1.5246,4.5163,9.9307,11.015
6.4300,-1.3170,3.6784,9.9460,10.686
6.4620,-1.4102,2.7207,8.9481,9.458
6.4640,-1.4868,1.8111,7.6873,8.036
6.4650,-1.4816,1.1055,6.4820,6.740
6.4700,-1.4470,0.1296,5.1851,5.385
6.4980,-1.0274,-1.0280,3.5690,3.854
6.4990,0.0855,-2.4418,1.0465,2.658
6.5020,0.4604,-3.2115,-0.1937,3.250
6.5650,0.2011,-3.7600,-0.9595,3.886
6.5670,-0.5675,-4.2155,-1.4892,4.507
6.5680,-1.0820,-4.2657,-1.8641,4.779
6.5700,-0.9668,-4.5029,-2.7930,5.386
6.5710,-0.6073,-4.7773,-4.1734,6.372
6.5730,-0.3398,-4.9302,-5.7004,7.544
6.5750,-0.1424,-4.9254,-7.2007,8.725
6.5800,0.3099,-4.9328,-9.1867,10.432
6.5890,0.1344,-4.7453,-10.6437,11.654
6.6140,-0.5065,-4.8117,-11.8890,12.836
6.6170,-0.7859,-5.0379,-13.5826,14.508
6.6200,-0.7581,-5.2507,-15.3838,16.273
6.6580,-0.3475,-5.5525,-16.9907,17.878
6.6600,0.0380,-5.2351,-19.2601,19.959
6.6630,-0.8713,-6.1291,-20.1013,21.033
6.6650,-1.2208,-5.9125,-20.5122,21.382
6.6910,-2.0952,-6.0361,-20.0156,21.011
6.6940,-2.0954,-6.0726,-18.6605,19.735
6.6960,-2.0746,-6.0661,-16.7453,17.931
6.6980,-2.2088,-6.3030,-14.8857,16.315
6.7450,-1.8674,-6.2191,-13.6694,15.133
6.7480,-0.4259,-5.6186,-13.5508,14.676
6.7490,-2.2718,-6.8518,-11.8515,13.877
6.7510,-1.0408,-6.3579,-11.5251,13.204
6.7530,-1.0179,-6.1514,-11.4586,13.045
6.7590,-1.2615,-6.1272,-10.8519,12.526
6.7690,-1.3975,-5.7294,-9.4986,11.180
6.7960,-1.2750,-5.2153,-7.9081,9.558
6.7980,-0.9030,-4.4683,-7.3717,8.667
6.8000,-0.4598,-3.7793,-7.4941,8.406
6.8080,-0.2253,-3.1831,-6.9867,7.681
6.8960,-0.7017,-2.2820,-6.7444,7.154
6.8990,-0.7565,-1.2076,-6.0317,6.198
6.9010,0.2780,-0.9007,-4.2971,4.399
6.9030,1.6443,-1.4893,-0.3194,2.241
6.9040,2.7116,-1.7397,6.2781,7.056
6.9060,5.5183,-1.8645,9.8820,11.471
6.9080,8.8696,-3.4049,9.8544,13.688
6.9100,11.6411,-5.3160,9.8367,16.141
6.9120,7.3692,-4.2952,9.8159,13.004
6.9140,3.8962,-3.4052,9.8215,11.101
6.9210,0.3451,-2.3516,9.8262,10.110
6.9480,-0.4027,1.0374,9.8288,9.892
6.9500,-0.1151,4.0458,9.8313,10.632
6.9510,-0.6454,6.5923,9.8439,11.865
6.9570,-4.1501,8.5153,9.8565,13.671
7.0380,-9.2313,11.0034,9.8698,17.427
7.0430,-4.9592,9.4514,7.1625,12.854
7.0470,-3.2447,7.7360,6.6017,10.675
7.0490,-2.3431,7.8169,8.3319,11.663
7.0520,-2.9857,5.6655,9.3581,11.340
7.0570,-3.8321,3.8574,9.8219,11.227
7.0640,-3.7457,2.3763,9.7756,10.735
7.0730,-3.0048,1.0364,7.7458,8.373
7.0760,-2.8953,0.1155,5.7623,6.450
7.0770,-1.3147,-0.8592,2.7388,3.157
7.0790,-1.6046,-1.7541,0.5016,2.430
7.0810,-0.5075,-2.1167,-1.8377,2.849
7.0900,-0.4959,-2.0986,-2.3793,3.211
7.1110,0.4602,-3.2459,-3.0282,4.463
7.1160,0.8379,-3.8731,-3.1585,5.068
7.1190,-0.3435,-4.6049,-3.4594,5.770
7.1260,0.4884,-5.1326,-4.0060,6.529
7.1660,1.2099,-5.8830,-5.6237,8.228
7.1680,1.0548,-6.1825,-7.2785,9.608
7.1690,0.6800,-6.2820,-9.4067,11.332
7.1710,0.7957,-6.6347,-11.6175,13.402
7.1800,1.0031,-6.3169,-13.6441,15.069
7.1860,0.9192,-6.0364,-15.8236,16.961
7.2180,1.1233,-5.8785,-16.6702,17.712
7.2200,1.3582,-5.7569,-17.0159,18.015
7.2230,1.5699,-5.6690,-16.7660,17.768
7.2260,1.7037,-5.4587,-16.2010,17.181
7.2660,1.6607,-5.4895,-15.9466,16.947
7.2680,1.6132,-5.4831,-15.6042,16.618
7.2700,1.6371,-5.4341,-15.0823,16.115
7.2720,1.2518,-5.3029,-14.5085,15.498
7.2750,0.7125,-4.9368,-14.4488,15.285
7.2850,0.7201,-5.0538,-14.7500,15.608
7.3090,-0.1030,-5.4113,-14.5687,15.542
7.3100,-0.0739,-5.1309,-14.1207,15.024
7.3150,0.3053,-5.3070,-13.8778,14.861
7.3340,2.2515,-4.3764,-13.8815,14.728
7.3360,0.3914,-5.8951,-13.4923,14.729
7.3700,-1.6285,-6.2458,-12.4140,13.992
7.3720,-1.3128,-5.1672,-11.1485,12.358
7.3750,2.5359,-3.5532,-10.9232,11.763
7.3780,4.0022,-4.5902,-12.0837,13.532
7.3880,3.5869,-4.4381,-12.9635,14.164
7.4250,0.7873,-2.7688,-11.6517,12.002
7.4270,-0.8016,-3.9692,-7.6118,8.622
7.4290,-0.7566,-4.6756,0.4406,4.757
7.4310,0.9325,-5.1809,9.9457,11.253
7.4350,3.4151,-5.6297,9.8739,11.868
7.4740,6.4113,-5.8721,9.8292,13.122
7.4760,11.2983,-5.8312,9.8090,16.058
7.4780,8.8233,-4.2647,9.8062,13.864
7.4800,6.6944,-0.8058,9.8181,11.910
7.4850,6.3507,0.6252,9.8410,11.729
7.4940,5.5199,2.1235,9.8700,11.506
7.5040,3.8249,3.3205,9.8975,11.118
7.5340,2.6742,4.4649,9.9271,11.209
7.5370,1.7353,4.8885,9.9623,11.232
7.5450,0.9705,4.5610,9.8058,10.858
7.5480,0.6172,4.0775,9.7101,10.550
7.6110,0.9884,3.6311,10.0541,10.735
7.6140,1.2194,2.7662,10.0746,10.518
7.6160,1.1288,2.0445,10.0889,10.356
7.6170,0.8000,1.2126,10.0948,10.199
7.6190,0.7429,0.5424,10.0958,10.138
7.6200,0.7285,-0.0681,10.0950,10.121
7.6230,0.7195,-0.5422,9.2852,9.329
7.6240,1.0372,-1.0209,7.6851,7.822
7.6550,1.6346,-1.6144,5.8289,6.265
7.6570,2.2183,-2.2777,3.8424,4.987
7.6590,2.7570,-2.6807,2.1829,4.422
7.7280,3.6118,-3.2904,0.9333,4.974
7.7300,3.2954,-3.7950,-0.1570,5.029
7.7330,3.0051,-3.9117,-0.6921,4.981
7.7350,1.9625,-3.7131,-1.8521,4.590
7.7380,0.8870,-3.2526,-3.1904,4.642
7.7410,-0.4745,-2.6146,-6.1509,6.700
7.7430,-1.1834,-2.2698,-8.8950,9.256
7.7460,-1.9086,-2.1138,-11.4218,11.771
7.7480,-2.3739,-2.0483,-13.1627,13.531
7.7960,-2.7992,-2.2635,-14.4298,14.872
7.8010,-3.3044,-2.3497,-15.7039,16.219
7.8070,-3.7146,-2.4877,-16.5320,17.126
7.8100,-4.2330,-2.8730,-16.8313,17.592
7.8130,-4.0963,-3.1230,-16.5810,17.363
7.8180,-4.2396,-3.2301,-15.9789,16.844
7.8220,-4.4640,-3.7173,-16.0766,17.094
7.8250,-4.0963,-4.0136,-15.5165,16.542
7.8610,-3.8209,-4.0515,-15.6286,16.591
7.8640,-3.5752,-4.0511,-15.5486,16.461
7.8660,-3.6232,-4.2806,-15.2900,16.286
7.8690,-3.6829,-4.2760,-14.5692,15.624
7.8780,-3.4931,-4.4420,-13.5580,14.689
7.9100,-3.5212,-4.8129,-12.4887,13.839
7.9130,-3.1873,-4.5870,-11.4915,12.777
7.9150,-3.7739,-4.0039,-10.9234,12.231
7.9170,-3.1670,-4.4102,-10.7087,12.006
7.9230,-2.7690,-4.5629,-10.8920,12.129
7.9770,-3.8623,-3.9619,-10.4245,11.802
7.9800,-3.7579,-3.6476,-10.0192,11.305
7.9820,-3.2352,-3.7609,-9.3548,10.589
7.9840,-2.6103,-3.3681,-7.8718,8.951
7.9860,-2.1997,-2.7620,-6.2691,7.195
7.9900,-1.9929,-2.1920,-4.5728,5.449
7.9950,-1.1756,-1.5543,-2.9968,3.575
8.0360,-0.5125,-0.6968,-1.4144,1.658
8.0400,-0.2137,-0.0974,-0.0878,0.251
8.0410,-0.4478,0.7235,1.5559,1.773
8.0420,-0.2883,1.6775,2.9796,3.432
8.0440,0.0831,2.2265,5.1230,5.587
8.0810,0.3301,2.9728,8.2320,8.759
8.0910,1.2356,2.8332,10.0013,10.468
8.0930,-0.5628,2.7972,10.0301,10.428
8.0940,-2.1867,1.2973,10.0614,10.378
8.0960,-0.6195,0.0013,10.0982,10.117
8.1650,2.2468,-0.6513,10.1382,10.405
8.1670,4.9260,-0.8146,10.2128,11.368
8.1700,8.4532,-1.3356,10.3481,13.429
8.1720,11.2361,-1.0322,10.4099,15.352
8.1740,7.2134,0.1221,10.5060,12.745
8.1760,4.6929,1.5750,10.5292,11.635
8.1780,2.6729,2.2043,10.5003,11.057
8.1800,2.0746,3.2616,10.4588,11.150
8.1820,2.1669,4.1054,10.4269,11.414
8.2040,2.5315,4.2374,10.4087,11.520
8.2060,2.4896,3.6675,10.3924,11.298
8.2900,2.9919,2.6225,10.3859,11.122
8.2910,3.9617,1.7398,10.3971,11.261
8.2930,4.5217,1.0302,10.4144,11.400
8.2950,4.0979,0.3276,9.9775,10.791
8.2960,3.3437,-0.4332,8.3392,8.995
8.2970,2.7121,-1.1870,6.4540,7.101
8.2980,1.9598,-1.7597,4.8609,5.529
8.2990,1.3635,-2.0065,3.3975,4.175
8.3010,1.0741,-2.0538,2.1976,3.194
8.3030,0.6384,-1.9608,0.7031,2.179
8.3480,0.0273,-1.8379,-0.7926,2.002
8.3500,-0.4456,-1.3383,-3.6819,3.943
8.3520,-0.5955,-0.8603,-6.0276,6.118
8.3530,-1.6357,-1.3417,-7.9829,8.258
8.3550,-1.6253,-1.3094,-9.6349,9.858
8.3800,-1.9108,-1.5618,-11.2887,11.555
8.3830,-1.0359,-0.8651,-12.4777,12.550
8.3870,-2.5191,-2.0298,-13.2015,13.592
8.3900,-2.8132,-3.3721,-14.6361,15.281
8.4730,-3.0520,-3.8444,-16.0094,16.745
8.4760,-2.4725,-3.7882,-16.4955,17.105
8.4790,-1.7430,-3.4856,-16.2711,16.731
8.4810,-1.4874,-3.1676,-16.2255,16.599
8.4830,-1.2030,-2.6949,-16.5167,16.778
8.4850,-0.7305,-2.0671,-16.8073,16.950
8.4880,-0.0675,-1.8258,-16.6390,16.739
8.4900,-0.1231,-1.7299,-15.4162,15.513
8.4920,-0.5784,-1.6525,-14.5843,14.689
8.4940,-0.8471,-1.8702,-14.2068,14.354
8.4990,-1.7818,-2.6891,-13.5224,13.902
8.5260,-1.0926,-1.5084,-12.3031,12.443
8.5280,-1.1895,-1.0952,-10.7768,10.897
8.5320,-0.9584,-1.7718,-9.7611,9.967
8.5860,-0.4410,-3.7887,-8.7931,9.585
8.5870,-1.0455,-5.0736,-9.5948,10.904
8.5890,-1.2825,-4.9962,-10.0839,11.327
8.5910,-1.1868,-4.2639,-9.5183,10.497
8.5920,-1.6235,-3.7227,-3.8056,5.566
8.5940,-1.1384,-3.2115,5.4357,6.415
8.5980,0.3188,0.2080,4.4347,4.451
8.6270,-0.3714,1.7187,5.4948,5.769
8.6290,-1.4362,1.4225,5.9033,6.240
8.6300,-1.1840,0.7243,4.7591,4.957
8.6520,-1.3623,0.4836,5.5047,5.691
8.6530,-0.6498,1.4706,7.7842,7.949
8.6570,0.1934,3.3886,9.0258,9.643
8.6670,-1.8859,5.4647,9.5266,11.143
8.7130,-5.2440,4.4048,8.8354,11.179
8.7150,-4.6058,1.1485,7.6184,8.976
8.7180,-2.2044,0.0974,7.5348,7.851
8.7210,0.9087,0.9137,8.0251,8.128
8.7220,1.7937,-0.6118,9.3186,9.509
8.7280,1.9955,-0.9984,9.5421,9.800
8.7480,1.5891,-0.6490,8.9089,9.073
8.7500,1.4611,-0.3092,7.1551,7.309
8.8080,0.4148,0.0302,4.3806,4.400
8.8090,0.4991,0.6626,2.2310,2.380
8.8110,1.6806,0.1972,2.0384,2.649
8.8120,2.6511,0.8412,0.9268,2.932
8.8130,1.9567,1.0998,0.5285,2.306
8.8140,1.0282,1.4190,0.7251,1.896
8.8170,0.3624,1.6476,1.4572,2.229
8.8280,0.3462,1.8862,2.3658,3.045
8.8560,0.1343,1.8365,2.9164,3.449
8.8580,0.2328,1.7856,2.3604,2.969
8.8590,0.2979,1.5056,1.4396,2.104
8.8670,0.2303,1.1940,0.5719,1.344
8.9040,0.1108,0.9137,-0.4844,1.040
8.9050,-0.4872,0.7193,-1.2501,1.522
8.9080,-1.1478,0.6571,-1.7112,2.163
8.9100,-1.7297,0.6506,-1.7912,2.574
8.9160,-2.1014,0.6872,-1.3025,2.566
8.9270,-1.6636,0.7553,-0.6208,1.930
8.9520,-0.7615,0.1447,0.2222,0.806
8.9540,0.1719,0.5258,0.1886,0.584
8.9560,-0.2508,0.9130,0.5513,1.096
8.9660,-1.6654,0.9302,-0.1126,1.911
9.0060,-2.1406,0.5001,-1.1462,2.479
9.0080,-0.8009,0.2603,-1.8124,1.998
9.0100,0.2020,-0.0250,-1.8522,1.863
9.0120,0.4847,-0.3073,-1.7740,1.864
9.0160,0.5140,-0.4696,-1.7249,1.860
9.0270,0.4247,-0.5729,-1.3372,1.516
9.0590,0.2592,-0.6426,-0.8710,1.113
9.0600,0.1536,-0.5483,-0.7776,0.964
9.0620,0.1815,-0.5976,-2.0027,2.098
9.0660,0.3422,-0.7342,-2.8537,2.966
9.1090,-0.5102,-0.5517,-1.2677,1.474
9.1110,-0.3657,-0.0382,-0.4102,0.551
9.1120,-0.0382,-0.1321,0.2487,0.284
9.1140,0.2202,-0.3162,-0.0532,0.389
9.1160,0.4243,-0.3319,-1.1948,1.311
9.1250,-0.1171,0.0330,-2.7574,2.760
9.1500,-0.4321,-0.1174,-2.6778,2.715
9.1520,-0.4457,-0.1987,-2.2671,2.319
9.1560,-0.5082,-0.0662,-1.4735,1.560
9.1990,0.1328,0.1576,-0.4226,0.470
9.2000,0.3934,0.0507,-0.5663,0.691
9.2020,0.9995,0.3032,-2.2035,2.439
9.2040,0.7063,0.7135,-1.2768,1.624
9.2060,0.2333,0.4598,-1.5920,1.673
