time,ax,ay,az,aT
0.0030,0.1677,-1.6625,-1.4381,2.205
0.0040,0.4489,-0.5008,-2.3609,2.455
0.0230,0.3726,0.1605,-2.9998,3.027
0.0250,0.2434,-0.0165,-3.2003,3.210
0.0670,-0.2060,-0.1643,-3.7032,3.713
0.0680,-0.9565,-0.4584,-4.4935,4.617
0.0690,-0.7024,-0.2193,-4.0934,4.159
0.0710,-1.0405,-0.7394,-2.7056,2.992
0.0730,-0.4277,-1.2466,-3.0407,3.314
0.1020,0.0216,-1.9541,-3.4613,3.975
0.1030,0.2526,-2.1685,-2.7170,3.485
0.1050,1.2243,-1.5382,-1.9003,2.734
0.1250,2.0663,-0.6108,-1.1674,2.451
0.1260,2.4958,0.1198,-0.1662,2.504
0.1500,1.4480,-0.6558,1.5995,2.255
0.1510,1.1385,-0.7413,2.0493,2.459
0.1520,-0.0689,-1.4178,3.4858,3.764
0.1920,-0.1263,-1.0754,3.8946,4.042
0.1940,0.1952,-0.3007,3.5466,3.565
0.1950,0.6874,0.2328,3.4852,3.560
0.1960,0.4479,0.2797,4.8384,4.867
0.2040,0.8418,0.3832,7.0386,7.099
0.2110,1.4338,1.1163,9.9279,10.093
0.2220,-0.6912,1.9335,9.9569,10.166
0.2340,-1.6745,2.9765,9.9409,10.511
0.2430,-1.2390,3.4580,9.9375,10.595
0.2740,-1.3838,4.4269,9.9567,10.984
0.2790,-2.3677,4.8843,9.9960,11.375
0.2800,-0.7697,1.7886,10.0480,10.235
0.2850,0.3882,-1.1110,10.1048,10.173
0.3260,0.8563,-1.7028,10.1656,10.343
0.3280,1.3829,-0.5718,6.2443,6.421
0.3300,1.6684,0.6273,5.6641,5.938
0.3310,0.4820,-1.3337,5.0706,5.265
0.3340,0.9325,-0.8969,3.8822,4.092
0.3430,0.6839,-0.1588,3.1555,3.233
0.3610,0.7616,0.4174,3.0085,3.131
0.3620,0.5827,0.7044,3.0078,3.144
0.4010,0.9314,0.6533,2.5750,2.815
0.4450,1.0272,1.2468,3.0102,3.416
0.4460,0.4235,-0.0040,0.4581,0.624
0.4470,-1.2678,-0.2598,-1.8041,2.220
0.4480,-1.9251,-0.9014,-1.8566,2.822
0.4490,-2.1985,-1.2729,-2.8322,3.805
0.4500,-1.4401,-1.4144,-4.3783,4.821
0.4520,-0.8636,-1.7919,-5.2690,5.632
0.4530,-0.7667,-2.1690,-6.0636,6.485
0.4930,-0.2916,-2.0053,-6.7158,7.015
0.4960,0.2536,-1.8908,-7.1864,7.435
0.4970,0.4934,-2.1570,-7.7958,8.104
0.4980,0.7139,-2.3093,-8.6106,8.943
0.4990,0.9860,-2.8095,-9.7692,10.213
0.5090,1.5915,-3.3935,-11.5419,12.135
0.5210,0.9824,-3.7655,-13.1971,13.759
0.5320,0.3867,-3.7133,-14.4054,14.881
0.5390,0.4301,-4.1275,-15.6730,16.213
0.5620,0.1710,-4.3910,-16.3749,16.954
0.5640,-0.2663,-4.4466,-16.7308,17.314
0.6040,0.2564,-4.6995,-16.4136,17.075
0.6060,0.4380,-4.9449,-15.2111,16.001
0.6080,0.2785,-4.6206,-13.6593,14.422
0.6100,0.8487,-4.5311,-11.9185,12.779
0.6130,1.1703,-4.7671,-10.6382,11.716
0.6190,0.7985,-4.7642,-9.3280,10.505
0.6290,0.3785,-4.6227,-8.3444,9.547
0.6390,-0.2759,-4.4360,-7.7693,8.951
0.6650,-0.3334,-4.5279,-7.3762,8.661
0.6680,-0.2185,-4.3609,-7.1723,8.397
0.6690,-0.7808,-4.2131,-7.0067,8.213
0.6790,-0.7167,-4.2044,-7.1043,8.286
0.7120,-1.3020,-4.2452,-7.1983,8.458
0.7140,-1.4021,-4.1593,-7.4022,8.606
0.7150,-1.3145,-4.0964,-7.6526,8.779
0.7200,-0.9128,-3.8485,-7.8202,8.764
0.7280,-0.7256,-3.5351,-7.8458,8.636
0.7380,-0.2730,-3.2502,-7.9483,8.591
0.7610,-0.2271,-3.0917,-8.2108,8.777
0.7630,-0.4763,-2.9591,-9.0378,9.522
0.7680,-0.7681,-2.4947,-9.1691,9.533
0.8120,-0.3752,-1.3489,-8.2858,8.403
0.8130,-0.2494,0.8735,-5.4656,5.541
0.8150,0.2879,3.1672,-4.8588,5.807
0.8160,0.0179,2.9265,-6.6175,7.236
0.8180,-1.8397,1.6872,-5.9969,6.496
0.8290,-2.2155,1.3868,-1.9439,3.257
0.8390,0.0247,0.1332,7.4541,7.455
0.8670,1.8245,-0.7485,10.0329,10.225
0.8710,3.6818,-0.6520,9.9399,10.620
0.8730,2.6267,-1.7108,9.8831,10.368
0.8780,4.0112,-2.6174,9.8623,10.964
0.9120,3.1048,-0.2487,9.8666,10.347
0.9130,3.2559,1.6558,9.8832,10.537
0.9150,3.6391,2.9250,9.9018,10.947
0.9190,4.3512,4.2091,9.9234,11.624
0.9270,1.8532,5.1333,9.9428,11.342
0.9380,1.1784,4.7259,9.9632,11.090
0.9630,0.8118,4.4523,9.2981,10.341
0.9650,1.6067,4.4953,9.4016,10.544
0.9680,1.8341,4.1120,9.6848,10.680
0.9780,1.8006,3.4969,9.3809,10.172
1.0860,1.7806,2.5766,8.7243,9.269
1.0890,2.1687,1.7213,6.8132,7.354
1.0920,2.3116,0.8043,3.8036,4.523
1.0960,2.0655,-0.1321,0.4058,2.109
1.0980,1.9004,-1.6840,-4.3963,5.077
1.1010,0.9490,-2.4866,-7.8647,8.303
1.1030,-0.0788,-3.0248,-11.2954,11.694
1.1080,-0.9436,-3.8683,-13.6331,14.203
1.1120,-2.1234,-4.0283,-14.6155,15.308
1.1160,-2.3944,-4.1939,-14.9113,15.674
1.1200,-2.4301,-4.3632,-15.4011,16.191
1.1250,-3.0532,-4.4025,-15.4873,16.388
1.1290,-2.8710,-4.5593,-15.6217,16.525
1.1320,-2.7374,-5.0617,-16.0322,17.034
1.1350,-2.8987,-4.5543,-16.3398,17.209
1.1370,-3.3834,-5.5636,-16.2090,17.468
1.1490,-2.5540,-4.7707,-14.8688,15.823
1.1560,-3.7939,-6.4127,-13.8751,15.749
1.1820,-4.2895,-6.0969,-12.5385,14.587
1.1850,-3.0746,-4.7709,-10.8791,12.271
1.1870,-2.3859,-4.8502,-9.4657,10.900
1.2180,-2.2969,-4.8150,-8.2600,9.833
1.2200,-2.1582,-4.4677,-7.5126,9.003
1.2220,-1.7252,-4.6499,-7.3127,8.836
1.2310,-1.6550,-4.6324,-7.7227,9.156
1.2600,-1.5317,-4.5797,-8.3260,9.625
1.2620,-1.5571,-4.5481,-8.7446,9.979
1.2630,-1.6351,-4.3871,-8.9529,10.103
1.2650,-1.6183,-4.1131,-9.1419,10.154
1.2760,-1.5915,-3.9077,-9.1612,10.086
1.2860,-1.3633,-3.5814,-8.9253,9.713
1.3080,-1.0181,-3.2470,-8.4358,9.096
1.3100,-0.5532,-2.8215,-7.8483,8.358
1.3150,-0.0858,-2.7045,-7.5900,8.058
1.3290,-0.2456,-2.6452,-7.7190,8.163
1.3600,-0.4293,-2.9392,-8.1432,8.668
1.3620,-0.7555,-3.1868,-8.6291,9.230
1.3640,-1.2462,-2.7021,-7.6993,8.254
1.3660,-2.1341,-1.5809,-6.1326,6.683
1.3750,-2.7661,0.5998,-3.4368,4.452
1.3850,-2.5880,3.8955,-0.5934,4.714
1.4210,-2.4032,4.1827,1.2141,4.974
1.4240,-1.4115,3.5983,2.4401,4.571
1.4260,-0.7698,3.4786,6.3393,7.272
1.4270,0.7542,4.5811,10.2445,11.247
1.5060,4.0334,5.3807,10.1940,12.212
1.5090,5.1631,4.9013,10.1352,12.386
1.5100,4.4386,3.6242,10.0792,11.594
1.5120,5.5506,1.9033,10.0377,11.627
1.5140,7.6351,1.7667,10.0222,12.722
1.5160,5.7076,1.6044,10.0233,11.645
1.5170,3.5313,2.0868,10.0377,10.843
1.5190,1.6560,2.9444,10.0589,10.611
1.5210,0.8728,3.8150,10.0812,10.814
1.5280,0.7120,4.1837,10.1001,10.955
1.5330,1.1412,4.1244,10.1148,10.983
1.5630,1.2285,3.8388,10.1255,10.898
1.5740,0.8251,3.5270,10.1339,10.762
1.5760,0.3392,3.1806,10.1430,10.635
1.5780,-0.0054,2.6667,10.1534,10.498
1.6050,-0.1630,2.1578,10.0793,10.309
1.6080,-0.2721,1.4843,7.3704,7.523
1.6090,0.0814,0.7469,3.9106,3.982
1.6320,0.8409,0.0331,-0.2871,0.889
1.6340,1.0420,-0.4820,-4.3726,4.521
1.6350,0.9129,-1.3274,-7.8376,8.001
1.7270,-0.4080,-2.2923,-12.5171,12.732
1.7300,-0.8978,-2.8875,-14.3387,14.654
1.7330,-1.1092,-3.3223,-14.7424,15.153
1.7360,-0.9423,-2.7248,-14.0889,14.381
1.7390,-0.4541,-2.7123,-12.4112,12.712
1.7460,-1.0181,-4.5416,-12.6832,13.510
1.7490,-1.8433,-5.3234,-13.5769,14.699
1.7530,-2.4242,-4.8765,-14.0428,15.062
1.7570,-2.8168,-5.0808,-15.3682,16.430
1.7600,-0.1735,-5.3183,-16.1501,17.004
1.7630,0.9332,-5.2360,-17.6731,18.456
1.7660,1.2059,-4.9906,-18.6317,19.326
1.7690,0.9578,-5.3101,-16.8210,17.665
1.7720,-0.5508,-5.9312,-15.1466,16.276
1.7850,-1.3729,-5.3157,-13.4222,14.502
1.8120,-0.6184,-3.8424,-12.3667,12.965
1.8150,-0.7836,-3.6174,-12.0708,12.626
1.8170,0.2231,-3.7975,-9.3092,10.056
1.8220,0.5581,-3.9487,-6.9137,7.981
1.8650,1.5387,-3.6744,-5.1562,6.516
1.8670,2.7595,-2.7857,-4.8675,6.250
1.8690,1.8309,-2.9944,-6.0183,6.967
1.8710,0.6783,-3.5987,-7.6712,8.500
1.8730,-0.3102,-3.2033,-7.3049,7.982
1.9150,-1.3033,-2.3214,-6.3889,6.921
1.9160,-1.4086,-1.7425,-5.8720,6.285
1.9180,-0.9377,-1.1604,-6.4345,6.605
1.9190,-0.8974,-0.7294,-7.7654,7.851
1.9220,-0.8372,-1.4103,-9.2956,9.439
1.9440,0.0447,-1.6318,-9.6649,9.802
1.9460,1.5918,0.1747,-5.9475,6.159
1.9540,3.0327,2.9940,-4.6986,6.343
2.0150,0.2631,3.3419,-5.1789,6.169
2.0190,-1.1657,2.8211,-5.1295,5.969
2.0230,-2.0501,1.9160,-4.7717,5.536
2.0250,-1.7328,-0.1362,1.0454,2.028
2.0260,1.3693,2.5773,9.9779,10.396
2.0280,5.6637,2.6565,10.0456,11.834
2.0300,8.2660,0.4860,9.9732,12.962
2.0320,9.3467,-1.3448,9.9255,13.700
2.0630,7.5400,-2.6652,9.9012,12.727
2.0650,4.2744,-3.1436,9.8951,11.228
2.0680,2.4056,-1.8274,9.9040,10.354
2.0700,0.4998,0.3510,9.9297,9.948
2.1260,-1.5806,2.4699,9.9687,10.391
2.1270,-3.7686,3.4596,8.3930,9.829
2.1290,-3.4800,4.5392,7.2490,9.234
2.1310,-3.3291,3.9151,8.0158,9.522
2.1320,-2.4557,3.1217,8.6195,9.491
2.1340,-2.0689,2.1717,8.8986,9.391
2.1580,-1.7938,0.9933,8.8229,9.058
2.1600,-1.2070,0.1274,7.3768,7.476
2.1620,-0.5249,-0.6082,4.6618,4.730
2.1820,-0.1466,-1.3805,2.1031,2.520
2.1840,0.1985,-2.2011,-0.4330,2.252
2.2300,0.2494,-3.0798,-3.1094,4.384
2.2320,0.3488,-3.8455,-5.4069,6.644
2.2330,0.3851,-4.4376,-7.3392,8.585
2.2360,0.7041,-4.7567,-8.7958,10.024
2.2410,1.4768,-3.6776,-9.3111,10.119
2.2430,0.7488,-4.6589,-10.7209,11.713
2.2680,0.4166,-4.5290,-10.9174,11.827
2.2720,-0.3006,-3.8476,-12.7675,13.338
2.2740,-0.3498,-3.3545,-14.8245,15.203
2.3160,-0.7106,-3.2678,-17.1385,17.462
2.3180,0.7651,-3.8511,-18.6121,19.022
2.3210,-0.1180,-3.4970,-18.4778,18.806
2.3220,-0.9513,-3.5997,-19.3065,19.662
2.3240,-1.3002,-3.6718,-18.6187,19.022
2.3510,-0.7582,-2.5972,-15.1433,15.383
2.3540,-2.1154,-2.5054,-12.2260,12.658
2.3580,-1.2813,-2.8002,-10.0856,10.545
2.3600,0.2493,-3.3657,-9.5438,10.123
2.3840,0.1642,-3.9720,-7.5947,8.572
2.3890,0.3091,-3.8558,-6.4483,7.520
2.3910,0.5971,-3.6950,-7.4994,8.382
2.3990,0.2785,-3.8024,-9.7517,10.471
2.4220,-0.6120,-3.5069,-10.8921,11.459
2.4240,-2.0278,-3.6931,-11.1566,11.926
2.4700,-2.3420,-3.9949,-10.1134,11.123
2.4720,-1.7084,-3.9591,-9.2952,10.247
2.4730,-1.3578,-4.0301,-9.0426,9.993
2.4780,-1.0801,-3.8049,-8.7960,9.644
2.4790,-0.7393,-3.2132,-9.3968,9.959
2.4800,-0.6557,-2.9374,-10.0979,10.537
2.4880,-0.6941,-2.9465,-11.1891,11.591
2.4980,-1.0403,-3.2698,-10.8525,11.382
2.5250,-0.9131,-2.6857,-9.2881,9.712
2.5270,-1.1090,-1.5467,-6.9471,7.203
2.5280,-0.7802,-0.2936,-6.3730,6.427
2.5840,-1.2633,0.4111,-7.2805,7.401
2.5870,-2.4636,-0.1802,-7.5577,7.951
2.5890,-2.6831,-1.9313,-5.6622,6.557
2.5900,-0.1195,-0.3374,-1.8247,1.859
2.5920,2.5295,1.8805,5.7618,6.568
2.5940,5.1354,1.2182,10.1428,11.434
2.5980,5.6419,-1.3127,10.0496,11.600
2.6170,5.3103,-3.3344,9.9822,11.788
2.6180,7.1177,-2.3325,9.9455,12.451
2.7200,8.0351,-1.7371,9.9358,12.896
2.7220,7.5292,-0.3869,9.9491,12.483
2.7230,6.4067,1.3353,9.9725,11.928
2.7240,3.6536,3.3164,10.0004,11.152
2.7270,2.6503,4.7309,10.0357,11.407
2.7290,0.6943,6.8522,10.0752,12.204
2.7310,-0.6891,7.8596,10.1139,12.827
2.7320,-2.0028,7.8454,10.1462,12.981
2.7340,0.3589,6.9994,10.1786,12.358
2.7360,1.2745,5.6676,10.2096,11.747
2.7380,1.0349,3.5634,10.2357,10.888
2.7400,-0.0281,1.9581,10.2607,10.446
2.7490,0.6884,0.4465,10.2930,10.326
2.7700,0.9102,-0.6019,8.7155,8.784
2.7710,0.6541,-1.4942,4.9138,5.177
2.7760,0.0080,-2.4612,1.3260,2.796
2.8410,-0.3751,-3.1940,-1.8066,3.689
2.8420,-0.7350,-4.0064,-4.6500,6.182
2.8430,-0.7869,-4.8170,-7.0550,8.579
2.8450,-0.9802,-5.4395,-8.9134,10.488
2.8460,-1.1593,-6.1072,-10.3136,12.042
2.8480,-1.5379,-6.6624,-11.3200,13.225
2.8500,-2.3037,-6.8490,-12.1511,14.137
2.8730,-3.0140,-6.8988,-13.2245,15.217
2.8750,-3.7508,-6.9235,-14.9118,16.863
2.8770,-4.3597,-6.9099,-17.9716,19.742
2.9690,-3.8491,-7.0855,-19.3783,20.989
2.9740,-3.2171,-7.2203,-19.6895,21.217
2.9760,-2.4493,-7.1052,-19.1467,20.569
2.9780,-2.0491,-7.0475,-18.0831,19.516
2.9810,-1.4855,-6.8020,-16.0548,17.499
2.9840,-0.9687,-6.4132,-13.3280,14.822
2.9860,-0.6122,-6.0616,-10.4061,12.058
2.9880,-0.5909,-5.8623,-8.2209,10.114
2.9890,-0.8950,-5.8029,-6.6120,8.843
2.9920,-1.1571,-5.7115,-5.6391,8.109
2.9940,-1.3718,-6.1447,-5.8643,8.604
2.9950,-1.6884,-6.5112,-6.6713,9.474
3.0220,-2.1524,-6.4280,-7.6664,10.234
3.0240,-2.0673,-6.6089,-8.4687,10.939
3.0280,-1.9934,-6.6746,-9.5720,11.838
3.0670,-2.3557,-5.9341,-9.8340,11.725
3.0690,-2.3412,-5.3730,-9.7673,11.391
3.0710,-2.0757,-4.8169,-9.9244,11.225
3.0730,-1.6394,-4.0485,-10.1543,11.054
3.0750,-1.2594,-3.4766,-10.3787,11.018
3.1060,-0.7070,-2.9845,-10.5484,10.985
3.1090,-0.6249,-2.7677,-10.4477,10.826
3.1110,-1.0119,-2.8387,-9.4341,9.904
3.1150,-1.1585,-2.8706,-6.3594,7.073
3.1360,-0.3092,-2.9367,-2.1770,3.669
3.1370,-0.1209,-2.1457,3.5809,4.176
3.1450,2.0420,0.3829,10.5681,10.770
3.1820,4.0759,4.9990,10.5156,12.336
3.1850,3.7201,8.9998,10.4899,14.313
3.1870,2.6126,9.8776,10.4868,14.641
3.1890,3.5443,9.8592,10.4932,14.828
3.1950,3.5238,8.4606,10.6165,14.025
3.2220,4.3410,7.6572,10.7150,13.867
3.2250,4.9482,6.6840,10.7947,13.627
3.2270,4.2119,5.5790,10.8191,12.881
3.2700,3.5981,6.1972,10.8686,13.018
3.2730,1.9142,6.8601,10.9185,13.036
3.2750,1.0484,8.2203,10.9734,13.751
3.2760,0.5948,7.5340,11.0311,13.372
3.2780,2.1400,9.4094,11.0587,14.677
3.2860,4.0256,10.8204,11.0436,15.976
3.2970,4.0702,9.1785,11.0185,14.907
3.3250,1.0136,6.6436,11.0368,12.922
3.3270,3.0951,5.3151,11.0186,12.619
3.3280,1.9473,2.3706,11.0069,11.426
3.3910,0.9999,0.3684,10.9544,11.006
3.3930,0.0008,-1.0154,6.5524,6.631
3.3940,-0.8405,-2.7709,1.9983,3.518
3.3960,-1.2105,-3.9693,-2.4895,4.839
3.3970,-1.6749,-5.2234,-5.9489,8.092
3.4000,-1.9578,-6.5017,-8.9423,11.228
3.4050,-2.6928,-7.9235,-11.4699,14.198
3.4080,-2.5205,-8.8247,-13.2106,16.086
3.4150,-2.1346,-9.3109,-14.4049,17.284
3.4300,-1.5702,-9.3208,-15.5241,18.175
3.4360,-2.4561,-10.1983,-16.1088,19.223
3.4850,-2.3692,-10.1470,-16.3391,19.379
3.4890,-2.8116,-9.8300,-15.8638,18.873
3.4940,-3.6449,-9.5837,-15.0176,18.184
3.4970,-3.4005,-9.3106,-14.6534,17.691
3.5000,-3.1743,-9.1655,-14.6576,17.576
3.5030,-3.9291,-9.0353,-13.8927,17.032
3.5050,-2.7429,-9.0193,-13.6116,16.557
3.5470,-2.4599,-9.0195,-13.3937,16.334
3.5500,-2.6758,-8.9150,-12.9267,15.929
3.5540,-3.0740,-8.6913,-12.1634,15.262
3.5560,-2.9317,-8.5182,-11.3319,14.476
3.5580,-2.8933,-8.2757,-10.3269,13.546
3.5630,-2.8412,-8.0509,-9.2337,12.576
3.6090,-2.5789,-7.6966,-8.2229,11.554
3.6140,-2.1450,-7.1779,-7.2703,10.439
3.6170,-1.8617,-6.7503,-6.9994,9.901
3.6190,-1.5726,-6.3327,-6.7688,9.402
3.6230,-1.5816,-5.6673,-6.3737,8.674
3.6250,-1.9132,-5.0589,-5.9930,8.073
3.6660,-1.7270,-4.7035,-6.0369,7.845
3.6690,-2.2176,-4.5738,-5.7297,7.659
3.6720,-2.1061,-4.1489,-4.2416,6.296
3.6750,-1.2882,-3.5703,-2.6203,4.612
3.6780,-0.7221,-3.0908,-1.5156,3.517
3.6820,-0.4123,-2.6316,-0.7394,2.764
3.7520,0.3935,-2.1454,-0.1711,2.188
3.7540,1.7934,-1.5099,1.2896,2.676
3.7560,3.1847,0.0772,5.1475,6.054
3.7580,3.7699,2.2197,10.6284,11.494
3.7610,4.3861,5.4578,10.6658,12.759
3.7650,5.2827,7.3562,10.7445,14.052
3.7720,7.8647,9.1197,10.7399,16.136
3.7740,6.2193,8.2551,10.7224,14.893
3.7760,2.9745,7.4152,10.7455,13.390
3.7960,2.0464,7.1161,10.7605,13.062
3.8000,1.7326,5.8913,10.7881,12.413
3.8030,1.5417,5.4099,10.8503,12.222
3.8440,0.9164,5.8590,10.9464,12.450
3.8470,-2.1651,6.5584,11.0498,13.031
3.8490,-2.2480,7.2535,9.4282,12.106
3.8510,-0.1527,7.1195,6.9241,9.932
3.8530,-0.2909,6.7067,8.4373,10.782
3.8850,1.3285,5.7846,10.3106,11.897
3.8870,1.8523,4.9055,11.2893,12.448
3.8880,1.8566,3.8565,11.2155,12.004
3.8900,1.5951,2.6770,11.1310,11.559
3.9320,1.3344,1.3260,11.0376,11.197
3.9340,1.0818,-0.0667,10.9368,10.990
3.9360,0.5162,-1.4675,8.6156,8.755
3.9370,-0.0615,-2.7010,5.8873,6.478
3.9410,-0.7343,-3.7417,2.6023,4.616
3.9510,-1.3424,-4.6300,-1.2763,4.987
3.9600,-1.8447,-5.3802,-5.9659,8.243
3.9820,-2.0283,-6.0787,-10.5680,12.359
3.9840,-2.9431,-6.6108,-14.0339,15.790
3.9930,-2.4984,-7.2345,-16.5248,18.211
4.0330,-1.5329,-6.9252,-17.7122,19.080
4.0350,-1.5784,-8.1118,-17.8076,19.632
4.0370,-1.8914,-9.0494,-17.1033,19.442
4.0390,-1.7806,-9.1744,-15.3518,17.973
4.0410,-1.0494,-9.0374,-13.8821,16.598
4.0500,-1.4890,-9.1165,-12.6863,15.693
4.0590,-1.7060,-9.1292,-12.1343,15.281
4.0800,-2.3808,-8.7510,-12.7614,15.656
4.0830,-3.3388,-8.4325,-13.9766,16.661
4.0890,-3.3086,-8.3600,-14.8008,17.318
4.1350,-2.7980,-8.0801,-15.4960,17.699
4.1380,-2.4496,-7.9559,-15.0267,17.178
4.1400,-2.7703,-7.7826,-13.5786,15.894
4.1480,-0.8923,-7.9188,-12.5266,14.847
4.1510,-1.1495,-8.4085,-12.0380,14.729
4.1530,-1.3054,-8.2988,-10.4411,13.401
4.1600,-1.2147,-8.1021,-9.0534,12.210
4.1930,-0.9775,-7.7180,-7.5401,10.834
4.1970,-1.0109,-7.1732,-6.6226,9.815
4.1990,-1.2139,-6.8297,-6.5545,9.544
4.2020,-1.3727,-6.2304,-6.4738,9.089
4.2800,-1.4492,-5.6020,-6.2758,8.536
4.2820,-1.5143,-4.8762,-5.8734,7.782
4.2840,-1.5848,-3.9710,-5.4952,6.963
4.2880,-1.4968,-3.1983,-5.0319,6.147
4.2900,-1.4357,-2.6495,-4.5387,5.448
4.2920,-1.8875,-2.4934,-3.7997,4.921
4.2960,-2.4482,-2.6439,-2.9245,4.641
4.2990,-1.9760,-2.3779,-1.8447,3.600
4.3020,-1.0564,-1.4209,-0.0648,1.772
4.3040,-0.5673,0.0307,1.7137,1.805
4.3130,-0.2082,1.3904,3.6108,3.875
4.3200,0.7898,4.2292,7.5659,8.704
4.3290,-0.1036,6.4266,10.2282,12.080
4.3710,-1.8542,6.1940,10.1469,12.032
4.3730,-1.8866,4.8565,10.0775,11.345
4.3760,-0.8499,3.5762,10.0356,10.688
4.3770,1.1612,4.2574,10.0358,10.963
4.3790,0.6911,4.6479,10.0652,11.108
4.4580,0.8514,5.2055,10.1109,11.404
4.4610,2.1623,6.3837,10.1829,12.211
4.4630,1.9160,7.7897,10.2414,13.009
4.4650,0.7743,9.0487,10.3093,13.739
4.4670,0.2427,9.8300,10.4447,14.345
4.4680,-0.6637,9.3525,10.5689,14.128
4.4710,-1.2145,7.7734,10.6560,13.246
4.4730,-2.0606,5.8750,10.6953,12.375
4.4760,-2.3307,4.0936,10.6932,11.685
4.4780,-2.1575,2.3258,10.6614,11.123
4.4900,-1.7549,0.7517,10.6094,10.780
4.5090,-0.8844,-0.5353,10.5470,10.598
4.5110,0.1321,-1.4749,10.0246,10.133
4.5830,0.8785,-2.2203,7.7799,8.138
4.5860,1.0352,-2.8431,5.2469,6.057
4.5880,0.5768,-3.5907,2.1670,4.233
4.5900,0.1477,-4.4415,-1.7091,4.761
4.5930,-0.1269,-5.3775,-6.1401,8.163
4.5960,-0.3461,-6.1288,-10.4760,12.142
4.5990,-0.7196,-6.6377,-14.4896,15.954
4.6020,-0.8068,-6.9637,-17.0312,18.418
4.6060,0.0091,-7.4727,-19.2735,20.671
4.6080,-0.6552,-8.1697,-19.5702,21.217
4.6420,-0.7601,-8.7153,-18.7129,20.657
4.6440,-0.6648,-8.2359,-17.2759,19.150
4.6470,-0.8706,-8.1877,-15.4497,17.507
4.6490,-1.3188,-8.1334,-13.9968,16.242
4.6570,-1.7376,-7.8180,-13.7452,15.908
4.7500,-2.0130,-7.8463,-13.8496,16.045
4.7530,-1.9467,-7.9275,-14.0935,16.287
4.7570,-1.6040,-7.8091,-13.8086,15.945
4.7590,-1.3487,-7.8949,-13.4031,15.614
4.7630,-1.0280,-8.0516,-12.6686,15.046
4.7680,-0.6545,-8.0789,-11.7852,14.303
4.7710,0.0699,-8.3917,-10.7231,13.617
4.7740,0.1349,-8.1778,-10.1368,13.025
4.7790,-0.0138,-7.9626,-9.8803,12.689
4.7830,-0.3883,-7.6226,-9.6867,12.332
4.7870,-0.7459,-7.2658,-9.8228,12.241
4.7900,-0.7586,-6.7692,-9.8559,11.981
4.7930,-0.8540,-6.1881,-9.9079,11.713
4.7990,-0.7636,-5.6780,-10.0374,11.557
4.8370,-0.8286,-5.3347,-10.2557,11.590
4.8410,-0.9625,-4.9859,-9.5625,10.827
4.8440,-1.0102,-4.5714,-8.3707,9.591
4.8480,-1.1624,-4.0976,-6.8184,8.039
4.8520,-1.7051,-3.6429,-4.8814,6.325
4.8560,-2.4819,-3.3344,-2.4433,4.822
4.9490,-3.0398,-2.5485,-0.1631,3.970
4.9510,-2.2013,-0.8989,1.6606,2.900
4.9520,-0.5681,1.0690,1.4918,1.921
4.9530,0.1956,2.5697,-1.5223,2.993
4.9540,0.0703,3.2979,-4.7986,5.823
4.9550,-0.3448,3.8072,-3.5344,5.206
4.9560,1.1503,4.9290,4.6742,6.890
4.9580,2.8873,5.3650,10.0806,11.779
4.9590,2.0876,3.2812,9.9890,10.719
4.9600,0.1028,0.1716,9.9170,9.919
4.9960,3.2524,-2.3219,9.8756,10.653
4.9980,5.9109,-2.1817,9.8647,11.705
5.0000,5.7192,-1.1447,9.8861,11.478
5.0010,3.5302,1.7080,9.9136,10.661
5.0040,2.8034,4.0871,9.9535,11.119
5.0380,2.5224,6.6739,10.0169,12.298
5.0390,1.6931,7.6838,10.0922,12.797
5.0420,1.0145,7.3921,10.1653,12.610
5.0430,1.1234,5.2812,10.2190,11.558
5.0540,2.0245,4.0210,10.2673,11.211
5.0790,2.0261,2.6248,10.3037,10.824
5.0810,1.7639,1.2385,10.3287,10.551
5.0840,2.6710,1.0871,10.3652,10.759
5.1070,2.3093,0.3701,7.5194,7.875
5.1090,1.3770,-0.7850,3.5442,3.882
5.1480,0.3249,-1.9528,-0.6028,2.069
5.1490,-0.0032,-2.9672,-3.4064,4.517
5.1510,-0.8939,-4.0690,-5.8422,7.175
5.1530,-1.2837,-4.9754,-7.8759,9.404
5.1540,-1.2910,-5.5698,-9.7415,11.295
5.1630,-1.8210,-5.7155,-11.5290,12.996
5.1730,-1.7628,-5.8730,-12.6615,14.068
5.2020,-1.3064,-6.3589,-14.0124,15.443
5.2040,-1.5434,-7.0767,-14.6976,16.385
5.2060,-1.7837,-7.5201,-14.7103,16.617
5.2340,-2.1550,-7.5890,-14.7999,16.771
5.2360,-2.2326,-7.5426,-15.4460,17.334
5.2370,-2.6555,-7.6041,-15.7322,17.674
5.2430,-2.9694,-7.5978,-15.8094,17.790
5.2530,-3.1834,-7.4685,-15.5290,17.523
5.2710,-3.3343,-7.5021,-15.0104,17.109
5.2740,-3.2567,-7.4862,-14.3245,16.488
5.3220,-2.5267,-7.5465,-13.7375,15.876
5.3250,-2.3873,-7.6234,-12.6101,14.928
5.3270,-2.4047,-7.7237,-11.6141,14.154
5.3280,-2.5818,-7.9189,-10.8931,13.713
5.3300,-2.7920,-7.9958,-10.4271,13.433
5.3330,-3.1180,-8.0891,-10.2769,13.445
5.3430,-3.5328,-8.1272,-10.6400,13.847
5.3540,-3.6158,-8.0247,-10.9762,14.069
5.3620,-3.5993,-7.8528,-10.8803,13.893
5.3720,-3.1841,-7.1991,-9.9802,12.711
5.3880,-2.9527,-6.4764,-8.6687,11.216
5.4040,-3.1117,-5.8153,-7.4600,9.958
5.4080,-3.3570,-5.4145,-6.4651,9.077
5.4520,-3.1299,-4.8813,-5.4972,7.990
5.4560,-2.8219,-4.2924,-4.7865,7.021
5.4580,-2.3581,-3.8275,-4.4914,6.355
5.4610,-1.8080,-3.3665,-4.3611,5.798
5.4630,-1.7492,-2.7592,-3.9283,5.109
5.4660,-1.6716,-1.8502,-2.8242,3.767
5.4740,-1.0809,-0.3623,-1.4819,1.870
5.4830,-0.5316,1.5835,-0.3938,1.716
5.5200,-0.2738,3.2692,1.2322,3.504
5.5240,-0.5837,3.6864,2.9532,4.759
5.5270,-0.1309,3.5368,7.5241,8.315
5.5300,1.6012,4.0501,10.1480,11.043
5.5340,2.0120,3.6737,10.0698,10.906
5.5440,1.7361,3.7455,10.0061,10.824
5.5880,-0.0006,-3.5317,9.9494,10.558
5.5900,0.5068,-5.4031,9.8991,11.289
5.5930,1.2167,-5.1626,9.8719,11.207
5.5940,0.0941,-4.4673,9.8486,10.815
5.5960,-1.0326,-3.2332,9.8387,10.408
5.6010,-2.1155,-1.7853,9.8303,10.213
5.6110,-1.8347,0.1203,9.8253,9.996
5.6220,-0.7092,1.8551,9.8328,10.031
5.6660,0.0484,2.9418,9.8504,10.280
5.6690,-0.6770,3.1934,9.8727,10.398
5.6730,-0.0507,2.7767,9.8978,10.280
5.6750,0.1693,1.5745,9.9236,10.049
5.6770,0.0142,0.4127,9.9404,9.949
5.7310,0.2013,-0.4938,9.9501,9.964
5.7330,0.0010,-1.0751,9.5508,9.611
5.7340,-0.2880,-1.3857,7.6465,7.776
5.7360,-0.4961,-1.8285,4.6474,5.019
5.7380,-0.3052,-2.2867,1.7871,2.918
5.7400,0.1870,-2.6361,-0.8128,2.765
5.7410,0.3529,-2.9577,-2.8039,4.091
5.7620,0.2980,-3.0188,-4.3808,5.329
5.7640,0.1184,-2.8185,-6.2499,6.857
5.7700,-0.2671,-2.7588,-8.6143,9.049
5.8140,-0.6190,-2.8392,-11.2014,11.572
5.8150,-1.1352,-2.9390,-13.3889,13.755
5.8170,-1.9394,-3.0874,-15.0617,15.497
5.8190,-2.4130,-3.1911,-16.1541,16.642
5.8220,-2.0901,-3.0297,-16.8162,17.214
5.8440,-2.2887,-3.2384,-16.9665,17.424
5.8460,-1.9030,-3.2943,-16.8712,17.295
5.8500,-1.6173,-3.2693,-17.2216,17.604
5.8610,-1.9462,-3.3853,-17.0697,17.511
5.8890,-1.3980,-3.5422,-16.7061,17.135
5.8930,-1.4168,-3.7498,-16.4365,16.918
5.8950,-1.2606,-3.8839,-15.6983,16.221
5.8990,-1.0790,-4.0818,-15.0701,15.650
5.9210,-0.6416,-4.4565,-14.3311,15.022
5.9230,-0.1459,-4.7590,-13.5122,14.327
5.9290,0.1050,-4.9390,-12.5453,13.483
5.9770,0.1742,-4.9163,-11.1952,12.228
5.9800,-0.1830,-5.1490,-9.4303,10.746
5.9810,-0.3679,-5.1032,-9.2557,10.576
5.9840,-1.0678,-5.1402,-8.7466,10.201
5.9870,-1.0254,-4.8515,-8.5936,9.922
5.9890,-0.9925,-4.5367,-8.5888,9.764
5.9990,-1.0151,-4.0712,-8.3770,9.369
6.0220,-0.9016,-3.2946,-8.0502,8.745
6.0230,-0.7735,-2.8020,-8.0263,8.536
6.0300,-0.6422,-2.0097,-8.3829,8.644
6.0740,-0.4840,-1.5193,-8.7163,8.861
6.0750,-0.2766,-0.9354,-8.7014,8.756
6.0770,-0.2605,-0.2405,-8.2227,8.230
6.0780,-0.5319,0.5827,-7.7756,7.816
6.0790,-0.7499,1.3545,-6.9628,7.133
6.0890,-1.0407,2.0763,-5.4818,5.953
6.0980,-1.6323,2.9663,-3.9178,5.178
6.1190,-2.2367,4.0207,-2.6063,5.288
6.1210,-3.9061,4.0512,-2.2157,6.048
6.1280,-0.9769,4.2201,-1.0513,4.457
6.1910,-0.6408,0.8093,2.2824,2.505
6.1930,5.6848,2.2664,9.7146,11.482
6.1940,12.1067,2.4139,9.9167,15.835
6.1970,10.0215,-0.3819,9.9216,14.107
6.1980,8.0207,-2.2771,9.9333,12.969
6.1990,7.4593,-7.3598,9.9607,14.458
6.2010,5.6360,-7.6156,9.9964,13.773
6.2090,3.5890,-7.6842,10.0715,13.167
6.2200,2.8907,-5.5319,10.1139,11.885
6.2420,2.2901,-2.8985,10.1102,10.764
6.2440,1.9808,0.1050,10.0708,10.264
6.2500,1.4665,2.5232,10.0179,10.434
6.3020,1.2811,3.9044,9.9759,10.789
6.3040,0.6857,4.3743,9.9492,10.890
6.3050,0.3118,4.1244,9.9375,10.764
6.3070,0.3791,3.5128,9.9381,10.548
6.3080,0.1825,2.8589,9.9433,10.348
6.3090,-0.3836,2.1922,9.9465,10.192
6.3170,-1.2858,1.0751,9.9422,10.082
6.3270,-1.6348,-0.0856,7.3131,7.494
6.3530,-1.2184,-0.9806,4.2455,4.524
6.3540,-0.4942,-1.5741,1.6403,2.327
6.3570,0.4052,-1.8975,-0.4068,1.982
6.3670,1.0865,-2.0668,-1.8578,2.984
6.5740,1.2645,-2.4543,-3.7307,4.641
6.5800,0.8075,-3.0579,-5.9594,6.747
6.5860,0.2524,-3.7765,-8.1265,8.965
6.5920,-0.5331,-4.3816,-9.8393,10.784
6.5930,-0.4108,-4.4934,-11.8773,12.705
6.5950,-0.7334,-4.9202,-14.4894,15.320
6.5980,-0.5170,-5.0788,-16.9506,17.703
6.5990,-0.4100,-5.0364,-18.4256,19.106
6.6030,-0.6351,-4.9020,-18.3111,18.966
6.6050,-0.1090,-4.8087,-18.1001,18.728
6.6070,0.0797,-4.8260,-18.0074,18.643
6.6080,-0.2261,-4.7622,-17.5867,18.221
6.6100,-0.2425,-4.9321,-16.6846,17.400
6.6120,-0.5253,-4.7963,-15.5673,16.298
6.6140,-0.5077,-4.6124,-14.0767,14.822
6.6150,-0.4158,-4.7452,-12.3156,13.205
6.6170,1.0095,-3.8376,-10.9165,11.615
6.6190,-0.4998,-5.2611,-11.0503,12.249
6.6210,-0.6936,-6.1744,-10.8607,12.512
6.6230,0.5895,-6.3241,-11.0474,12.743
6.6250,1.7992,-6.3045,-11.8633,13.554
6.6270,0.7498,-7.1220,-11.9187,13.905
6.6280,-1.0115,-7.4002,-11.3748,13.608
6.6300,-0.9680,-6.6033,-9.5629,11.661
6.6320,-1.7017,-5.8935,-8.9064,10.814
6.6340,-2.2092,-5.8105,-8.6206,10.628
6.6360,-1.6652,-5.5506,-8.6925,10.447
6.6580,-0.5509,-5.1082,-8.7365,10.135
6.6590,0.0422,-4.5031,-8.7131,9.808
6.7080,0.2573,-3.7637,-8.6424,9.430
6.7090,0.1796,-2.7943,-8.6078,9.052
6.7110,-0.0859,-1.7719,-7.1907,7.406
6.7120,-0.1172,-0.4148,-4.7788,4.798
6.7140,-0.7274,1.3033,-2.6324,3.026
6.7150,-2.3701,2.3586,-1.8789,3.835
6.7560,-2.4100,2.5860,-0.8856,3.644
6.7570,-0.1162,3.1802,1.7199,3.617
6.7590,2.9175,4.6927,6.4540,8.496
6.7600,3.9153,5.9831,10.2035,12.459
6.7650,3.4910,6.1584,10.1749,12.395
6.8100,2.4412,4.9382,10.1484,11.547
6.8120,1.7478,2.5677,10.1135,10.580
6.8140,3.1634,0.9009,10.0711,10.595
6.8160,5.4706,-0.0885,10.0358,11.430
6.8180,6.5695,0.4649,10.0344,12.003
6.8340,4.8969,1.8520,10.0671,11.347
6.8350,1.6644,3.7619,10.1113,10.916
6.8470,-0.6717,5.1552,10.1571,11.410
6.8800,-1.7109,7.1526,10.2209,12.592
6.8830,-1.5110,8.2499,9.0658,12.350
6.8840,-0.4066,9.0936,10.3966,13.818
6.8850,-1.7218,7.1531,8.9103,11.555
6.8940,-0.9107,6.2408,7.0304,9.445
6.9150,-0.4595,4.2692,4.9356,6.542
6.9180,1.2508,2.4103,3.4808,4.415
6.9240,2.4292,1.1437,2.4258,3.618
6.9540,2.7421,0.4584,1.9693,3.407
6.9560,1.5596,0.0396,-0.5094,1.641
6.9570,2.0274,-0.2359,-4.5268,4.966
6.9630,-1.1175,-1.6977,-3.9339,4.428
6.9740,-3.5694,-2.7371,-3.7016,5.825
7.0050,-3.9787,-2.8663,-3.3293,5.927
7.0070,-2.8906,-3.2592,-2.6566,5.102
7.0100,-1.6328,-4.6664,-2.8882,5.726
7.0140,-0.9432,-5.7800,-3.7186,6.937
7.0800,-0.9591,-6.5314,-6.5701,9.314
7.0840,-1.3785,-7.1397,-9.6270,12.065
7.0860,-1.6130,-7.2496,-12.7320,14.740
7.0880,-1.5185,-7.0273,-14.8952,16.540
7.0900,-1.3246,-6.4652,-15.6548,16.989
7.0930,-1.1937,-5.8230,-15.9304,17.003
7.0950,-0.9580,-5.2946,-15.7166,16.612
7.0970,-1.1012,-4.7612,-14.8690,15.652
7.1060,-1.0865,-4.4134,-13.7510,14.483
7.1130,-0.9894,-4.2100,-12.7335,13.448
7.1440,-1.2295,-4.0870,-11.1234,11.914
7.1460,-1.8745,-4.2055,-9.0081,10.117
7.1490,-0.8892,-5.3771,-5.8661,8.007
7.2180,-0.0981,-5.1195,-5.5307,7.537
7.2210,-0.3795,-4.3570,-4.5637,6.321
7.2230,-1.2934,-3.8216,-2.8799,4.957
7.2250,-2.2092,-3.8936,-2.6110,5.183
7.2270,-2.1928,-4.0076,-3.6801,5.866
7.2290,-0.5477,-4.1048,-5.3875,6.795
7.2310,0.6519,-4.2446,-5.0602,6.637
7.2330,1.9729,-4.1764,-4.8549,6.701
7.2340,2.0999,-4.2439,-5.8000,7.487
7.2440,1.7447,-3.8703,-6.4593,7.730
7.2740,1.2010,-3.6950,-6.5341,7.602
7.2770,1.2008,-2.6732,-6.0466,6.719
7.2790,1.2023,-2.0302,-5.7532,6.218
7.2840,1.3756,-1.5881,-4.0544,4.566
7.3240,0.6383,-0.7299,-1.9056,2.138
7.3260,-0.5820,0.3791,-0.4499,0.828
7.3270,-2.0787,1.4288,1.3507,2.861
7.3290,-3.5902,1.2292,2.8997,4.776
7.3560,-2.8807,1.5458,4.3707,5.458
7.3580,-1.1186,2.2273,6.7108,7.159
7.3590,0.3876,3.5855,10.0351,10.663
7.3660,0.3033,3.8833,9.4230,10.196
7.4100,-0.2471,2.6617,8.3344,8.753
7.4150,-0.2351,1.4286,8.5763,8.698
7.4160,0.6335,0.6478,9.9960,10.037
7.4170,-0.1226,-0.5195,10.5267,10.540
7.4190,-1.2590,-0.4742,10.4027,10.489
7.4210,-1.5468,-0.4250,9.4748,9.610
7.4420,-0.9130,0.1654,7.3310,7.389
7.4440,-0.3882,0.9233,5.4797,5.570
7.4520,-0.0148,1.6699,4.1693,4.491
7.4610,1.6369,1.3024,4.0220,4.533
7.4860,2.4057,2.0070,3.8410,4.957
7.4880,1.8351,2.3645,4.7883,5.647
7.4910,0.6621,2.5001,4.9267,5.564
7.5010,-0.0842,2.6632,4.0513,4.849
7.5100,-0.8697,2.7229,2.5472,3.829
7.5510,-2.0110,2.4665,0.7284,3.265
7.5560,-3.3638,0.5093,-1.3383,3.656
7.5660,-1.9204,3.0330,-2.4823,4.365
7.5710,-1.5831,2.9637,-3.1214,4.586
7.5750,-1.2021,0.5085,-4.3908,4.581
7.5780,-0.0545,0.2327,-4.0020,4.009
7.6210,0.3515,0.3446,-5.0017,5.026
7.6240,-0.1020,-0.1768,-2.8304,2.838
7.6250,0.3584,-0.3379,-1.2224,1.318
7.6270,0.1606,-0.4255,0.1045,0.467
7.6280,0.0402,-0.5134,0.7238,0.888
7.6310,-0.1629,-0.6980,0.6372,0.959
7.6410,-0.6698,-0.6839,0.5173,1.088
7.6660,-0.2640,-1.0291,0.4863,1.168
7.6670,0.2021,-1.2331,0.3857,1.308
7.6690,0.9842,-0.9931,-0.1659,1.408
7.7440,1.5646,-0.8699,-0.5006,1.859
7.7450,1.5688,-0.9135,-1.0031,2.074
7.7460,0.8632,-0.8537,-1.3857,1.842
7.7480,0.2760,-0.3284,-1.7370,1.789
7.7490,-0.6303,-0.0196,-1.6701,1.785
7.7510,-0.8343,0.4113,-1.5554,1.812
7.7520,-1.0407,0.2946,-1.5814,1.916
7.7540,-0.8759,0.3355,-1.6127,1.866
7.7620,-0.3225,0.4512,-1.9050,1.984
