time,ax,ay,az,aT
0.0060,-0.2903,0.9430,0.2987,1.031
0.0080,-0.1316,0.7200,0.6178,0.958
0.0100,0.1675,0.5588,0.6983,0.910
0.0120,0.4291,0.2294,0.3678,0.610
0.0140,0.5080,0.1884,-0.0144,0.542
0.0280,0.4545,0.0781,-0.1662,0.490
0.0300,0.5255,0.1689,-0.2213,0.595
0.0490,0.4966,0.1379,-0.5920,0.785
0.0510,0.3977,0.0893,-0.9242,1.010
0.0660,0.7945,-0.2327,-1.1752,1.438
0.0760,0.5567,-0.6389,-1.2592,1.518
0.0860,1.0284,-0.2843,-1.4238,1.779
0.1010,0.8804,-0.3052,-1.2725,1.577
0.1020,0.3215,-0.2966,-1.0975,1.181
0.1220,0.3276,-0.1994,-1.0563,1.124
0.1240,0.2642,-0.0532,-0.9141,0.953
0.1340,0.1916,-0.0334,-0.9396,0.960
0.1450,0.0601,-0.0816,-0.8075,0.814
0.1500,-0.0863,-0.0450,-0.6233,0.631
0.1600,-0.0878,-0.0140,-0.4106,0.420
0.1710,0.1566,0.0594,-0.6624,0.683
0.1840,0.2269,0.1637,-0.2491,0.375
0.1930,0.1947,0.0924,0.2447,0.326
0.1990,0.1961,-0.2153,-0.0477,0.295
0.2180,0.3164,-0.0750,0.1912,0.377
0.2200,0.6054,0.0377,0.2147,0.643
0.2310,0.0623,-0.2997,0.4144,0.515
0.2420,0.3596,-0.2732,0.1929,0.491
0.2490,0.3543,-0.0905,-0.0091,0.366
0.2670,0.3902,-0.1977,0.1383,0.459
0.2710,0.3109,-0.0621,0.2954,0.433
0.2830,0.2126,-0.2554,0.1890,0.382
0.3000,0.2088,-0.1212,-0.0510,0.247
0.3010,0.2895,-0.0358,0.0540,0.297
0.3120,0.3598,-0.0121,-0.1380,0.386
0.3180,0.5066,0.3681,-0.1429,0.642
0.3280,0.4454,0.6791,-0.0663,0.815
0.3400,0.2370,0.6990,-0.0908,0.744
0.3480,0.4897,0.7727,-0.1634,0.929
0.3590,0.6053,0.7899,-0.0016,0.995
0.3690,0.0687,0.3515,-0.0276,0.359
0.3830,-0.1233,-0.0600,-0.1308,0.189
0.3940,0.2449,-0.0657,-0.2861,0.382
0.3980,0.2844,-0.0577,-0.2209,0.365
0.4260,-0.0646,-0.2783,-0.2850,0.404
0.4340,-0.0261,-0.2998,-0.4156,0.513
0.4380,-0.0686,-0.0717,-0.4737,0.484
0.4400,-0.0539,-0.0793,-0.5888,0.597
0.4490,-0.1050,0.0405,-0.6078,0.618
0.4600,-0.2219,0.0488,-0.6168,0.657
0.4680,-0.3075,0.2204,-0.7307,0.823
0.4780,-0.2693,0.3457,-0.9399,1.037
0.5070,-0.4993,0.3225,-0.9290,1.103
0.5090,-0.4959,0.4372,-1.0141,1.211
0.5110,-0.4783,0.5366,-0.8743,1.132
0.5180,-0.4322,0.5677,-0.8351,1.098
0.5310,-0.3814,0.4836,-0.7818,0.995
0.5370,-0.3927,0.4470,-0.5516,0.811
0.5480,-0.4194,0.3963,-0.7094,0.914
0.5590,-0.3812,0.3570,-0.8340,0.984
0.5690,-0.3094,0.3219,-0.6573,0.795
0.5770,-0.2304,0.3484,-0.5527,0.693
0.5940,-0.1124,0.4162,-0.3764,0.572
0.6090,0.0686,0.7079,-0.2333,0.749
0.6100,0.4516,1.2116,0.1306,1.300
0.6220,-1.1813,0.7628,0.4978,1.492
0.6270,-1.1336,0.7015,0.3819,1.387
0.6400,-0.5185,0.9733,-0.1929,1.120
0.6470,0.1051,1.2583,-0.0300,1.263
0.6570,0.1599,0.9902,0.3723,1.070
0.6680,0.2098,0.6497,0.2674,0.733
0.6770,0.3312,0.4659,-0.0620,0.575
0.7000,0.5604,0.5675,0.1025,0.804
0.7020,0.4258,0.5763,-0.0007,0.717
0.7090,0.4085,0.5923,-0.0408,0.721
0.7180,0.0642,0.6591,0.0776,0.667
0.7280,-0.1234,0.6851,-0.1338,0.709
0.7410,-0.2231,0.6227,-0.0669,0.665
0.7470,-0.3217,0.6376,-0.1527,0.730
0.7570,-0.2216,0.4547,-0.3486,0.614
0.7670,-0.1379,0.5158,-0.6109,0.811
0.7770,0.0557,0.3697,-0.6767,0.773
0.7960,0.1292,0.3885,-0.9721,1.055
0.7990,0.3082,0.3784,-0.8889,1.014
0.8270,0.1669,0.2549,-1.1458,1.186
0.8300,0.3278,0.3135,-1.5125,1.579
0.8320,0.2251,0.3716,-1.5302,1.591
0.8370,0.2603,0.4270,-1.4674,1.550
0.8460,0.2287,0.4969,-1.4915,1.589
0.8560,0.3175,0.6697,-1.1234,1.346
0.8670,0.3090,0.7192,-1.0238,1.289
0.8760,0.4287,0.7931,-1.0681,1.398
0.8970,0.2410,0.8551,-0.9792,1.322
0.8990,0.0272,0.9297,-0.5466,1.079
0.9260,-0.0450,0.8721,-0.3443,0.939
0.9280,0.0755,0.9389,-0.4578,1.047
0.9310,0.1619,1.0121,-0.3893,1.096
0.9410,0.2007,1.0842,-0.3978,1.172
0.9460,0.1806,1.0294,-0.1489,1.056
0.9560,0.1728,1.0803,0.1135,1.100
0.9670,0.2256,1.1146,0.6725,1.321
0.9770,0.2162,1.1133,0.8966,1.446
0.9890,0.0939,1.2340,1.0597,1.629
0.9960,0.0318,1.1521,0.8694,1.444
1.0190,-0.0775,1.0735,0.8143,1.350
1.0220,-0.0955,1.0589,0.7646,1.310
1.0250,-0.0386,1.0645,0.5672,1.207
1.0410,-0.0506,1.0449,0.4468,1.138
1.0470,-0.0604,0.8805,0.2024,0.905
1.0560,-0.0957,0.8536,0.3415,0.924
1.0660,-0.0472,0.7828,0.0261,0.785
1.0750,0.0267,0.7859,-0.0012,0.786
1.0940,-0.0511,0.7664,-0.0897,0.773
1.1010,-0.2078,0.6653,-0.0958,0.704
1.1330,-0.2933,0.6896,-0.5179,0.911
1.1370,-0.3226,0.6821,-0.7479,1.062
1.1390,-0.4180,0.6610,-0.9348,1.219
1.1410,-0.4504,0.6563,-1.1077,1.364
1.1450,-0.3780,0.4750,-1.0996,1.256
1.1570,-0.2764,0.5439,-0.9827,1.157
1.1650,-0.2331,0.5861,-0.6756,0.924
1.1750,-0.2198,0.4048,-0.4991,0.679
1.1950,-0.0265,0.2599,-0.2613,0.369
1.2060,-0.0724,0.3063,-0.1638,0.355
1.2090,-0.1511,0.2876,0.1194,0.346
1.2260,-0.1772,0.1437,0.3343,0.405
1.2290,-0.2613,-0.0444,0.5576,0.617
1.2370,-0.2627,-0.1039,0.8177,0.865
1.2450,-0.0976,-0.1371,1.0052,1.019
1.2550,-0.1285,-0.1338,1.3689,1.381
1.2650,0.0567,-0.2259,1.6127,1.629
1.2740,-0.0790,-0.3903,1.6270,1.675
1.2970,-0.0277,-0.4807,1.5079,1.583
1.2990,-0.0554,-0.5127,1.2558,1.358
1.3310,0.1807,-0.5069,0.6607,0.852
1.3360,0.3728,-0.4485,0.0870,0.590
1.3390,0.5735,-0.3674,-0.4531,0.818
1.3410,0.5407,-0.3896,-0.4685,0.815
1.3430,0.3863,-0.3943,-0.2625,0.611
1.3540,0.2449,-0.2063,0.2260,0.392
1.3640,-0.1841,-0.4163,1.1585,1.245
1.3750,-0.6600,-0.5535,2.0237,2.199
1.3990,-0.7124,-0.7409,2.6665,2.858
1.4020,-0.6521,-0.7215,3.0278,3.180
1.4050,-0.2761,-0.7563,2.9812,3.088
1.4140,-0.0074,-0.8108,2.4315,2.563
1.4280,0.2983,-0.8076,1.7816,1.979
1.4400,0.6684,-0.7062,1.0114,1.403
1.4440,0.8628,-0.6876,0.4550,1.193
1.4540,0.8182,-0.4694,-0.0610,0.945
1.4630,0.5314,-0.4003,-0.5042,0.835
1.4730,0.4595,-0.3764,-0.8463,1.034
1.4940,0.3438,-0.3691,-0.9206,1.050
1.5070,0.1936,-0.3080,-0.8424,0.918
1.5090,0.1506,-0.2174,-0.6263,0.680
1.5140,0.1192,-0.4088,-0.5690,0.711
1.5340,-0.1063,-0.4348,-0.4018,0.602
1.5380,-0.1389,-0.6452,-0.5311,0.847
1.5430,-0.2089,-0.6731,-0.6499,0.959
1.5530,-0.2154,-0.8010,-1.0025,1.301
1.5630,-0.1870,-1.0137,-1.2490,1.619
1.5720,-0.2885,-1.0015,-1.2990,1.665
1.6030,-0.3899,-1.0209,-1.5835,1.924
1.6080,-0.4734,-0.9589,-1.6339,1.953
1.6130,-0.5362,-0.8030,-1.5322,1.811
1.6180,-0.4533,-0.7992,-1.4125,1.685
1.6230,-0.2110,-0.7850,-1.2893,1.524
1.6370,0.0217,-0.6546,-1.1580,1.330
1.6430,0.2418,-0.5480,-0.9945,1.161
1.6540,0.3406,-0.6012,-0.7743,1.038
1.6620,0.4066,-0.6610,-0.4780,0.911
1.6720,0.4443,-0.5279,-0.2912,0.749
1.6950,0.2982,-0.4975,-0.2468,0.630
1.6980,0.2074,-0.4840,-0.2011,0.564
1.7360,0.1819,-0.5886,-0.3361,0.702
1.7400,0.2857,-0.5951,-0.5945,0.888
1.7430,0.2405,-0.5551,-0.6508,0.889
1.7460,0.1728,-0.5471,-0.9175,1.082
1.7490,0.0873,-0.4841,-1.1073,1.212
1.7510,-0.2026,-0.4809,-0.9904,1.119
1.7630,-0.3059,-0.4489,-1.0889,1.217
1.7710,-0.4340,-0.4154,-1.1869,1.330
1.7830,-0.5261,-0.1209,-1.3229,1.429
1.7920,-0.5328,-0.1468,-1.3862,1.492
1.8020,-0.5971,-0.1662,-1.6980,1.808
1.8120,-0.6079,-0.2555,-1.8511,1.965
1.8320,-0.5517,-0.1545,-1.9799,2.061
1.8440,-0.5048,-0.1252,-1.9937,2.060
1.8520,-0.5583,-0.0987,-1.8783,1.962
1.8550,-0.3838,-0.1332,-1.9018,1.945
1.8830,-0.3134,-0.0747,-1.7196,1.750
1.8880,-0.1804,-0.1000,-1.6288,1.642
1.8900,-0.3113,-0.0476,-1.5382,1.570
1.8930,-0.4306,-0.1052,-1.5959,1.656
1.9000,-0.5357,0.0154,-1.4670,1.562
1.9110,-0.4815,0.0921,-1.3292,1.417
1.9260,-0.5580,0.1051,-1.1250,1.260
1.9570,-0.5027,0.1079,-1.0271,1.149
1.9600,-0.4417,0.2370,-0.8242,0.965
1.9630,-0.3578,0.3322,-1.0235,1.134
1.9660,-0.3839,0.3337,-0.8833,1.019
1.9750,-0.3837,0.2429,-0.7916,0.913
1.9910,-0.3063,0.3814,-0.7296,0.878
2.0020,-0.3456,0.4618,-0.4001,0.702
2.0040,-0.3674,0.5822,0.0287,0.689
2.0280,-0.4620,0.4724,0.3370,0.742
2.0300,-0.4553,0.5067,0.6070,0.912
2.0370,-0.3352,0.6594,0.8008,1.090
2.0390,-0.2619,0.9532,0.9857,1.396
2.0580,-0.3828,0.9575,1.2431,1.615
2.0620,-0.4461,0.8560,1.5056,1.788
2.0790,-0.4130,0.9016,1.7016,1.970
2.0840,-0.2901,1.0228,2.1569,2.405
2.0900,-0.1840,1.0689,2.4073,2.640
2.1110,-0.1377,1.0144,2.7499,2.934
2.1130,-0.2325,1.1167,2.9978,3.207
2.1340,-0.2858,1.0246,2.9309,3.118
2.1370,-0.3288,1.0400,2.5695,2.791
2.1390,-0.5074,0.9169,2.4207,2.638
2.1540,-0.4266,0.8124,1.9141,2.123
2.1600,-0.3407,0.7765,1.5571,1.773
2.1690,-0.3222,0.7871,1.5699,1.785
2.1790,-0.1658,0.6756,1.2430,1.424
2.1890,0.2510,0.7424,0.9648,1.243
2.1980,0.5550,0.7114,0.9069,1.279
2.2090,0.7098,0.7398,0.8061,1.304
2.2270,0.8072,0.5154,0.5859,1.123
2.2290,1.0212,0.2175,0.0209,1.044
2.2390,1.4809,0.0217,-0.4916,1.560
2.2510,1.8215,-0.2313,-0.9761,2.079
2.2580,2.1002,-0.5657,-0.9747,2.383
2.2690,2.2058,-0.8137,-0.5949,2.425
2.2800,2.0665,-0.8352,-0.4125,2.267
2.2880,1.9506,-0.6967,-0.3701,2.104
2.2980,1.7596,-0.8358,-0.2801,1.968
2.3090,1.4443,-0.8858,-0.5528,1.782
2.3360,1.2997,-0.8514,-1.0863,1.896
2.3420,1.0012,-0.8587,-1.2846,1.841
2.3450,1.1292,-0.6111,-1.2957,1.824
2.3670,1.5451,-0.1498,-1.4519,2.126
2.3710,1.1855,-0.2925,-1.5195,1.949
2.3750,0.8225,-0.6025,-1.7961,2.065
2.4350,0.4682,-0.5734,-1.5831,1.748
2.4370,0.4497,-0.1057,-1.9004,1.956
2.4380,0.4305,-0.0722,-2.0010,2.048
2.4400,0.4194,-0.2268,-2.1863,2.238
2.4420,0.4027,-0.4240,-2.4091,2.479
2.4430,0.3779,-0.7126,-2.8324,2.945
2.4450,0.6220,-0.6415,-3.1260,3.251
2.4470,0.7768,-0.6437,-3.1982,3.354
2.4580,0.7903,-0.6557,-3.1691,3.331
2.4670,0.9623,-0.6961,-3.3440,3.549
2.4780,0.7803,-0.7908,-3.9707,4.123
2.4870,0.1929,-1.0124,-4.5457,4.661
2.4970,-0.2781,-1.4200,-4.7918,5.006
2.5090,-0.6499,-1.6141,-5.7831,6.039
2.5250,-0.7702,-1.6936,-6.5156,6.776
2.5280,-0.5954,-1.7805,-6.8584,7.111
2.5360,-0.3158,-1.7864,-7.4024,7.621
2.5480,-0.3235,-2.1390,-7.7621,8.058
2.5570,-0.3223,-2.6910,-7.9528,8.402
2.5670,0.6197,-2.5136,-7.6280,8.055
2.5780,1.3471,-1.9079,-6.8707,7.257
2.5860,1.3227,-1.4201,-6.3974,6.685
2.5960,0.4318,-1.3914,-5.0733,5.278
2.6070,0.1157,-1.4167,-4.7041,4.914
2.6270,-0.2179,-1.2232,-3.9255,4.117
2.6300,-0.2962,-0.8851,-2.9708,3.114
2.6360,-0.1947,-0.4134,-2.0825,2.132
2.6460,0.1685,0.1657,-1.1001,1.125
2.6570,0.2506,0.5329,-0.4874,0.764
2.6670,0.4323,0.5434,-0.0530,0.696
2.6760,0.4725,0.5600,0.8966,1.158
2.6850,0.5464,0.4353,1.4892,1.645
2.6960,0.6083,0.4684,2.0832,2.220
2.7070,0.4134,0.6981,2.6785,2.799
2.7200,0.3306,0.8456,3.4330,3.551
2.7350,0.1790,0.9929,4.0976,4.220
2.7380,0.0540,0.9782,4.6244,4.727
2.7460,0.0141,0.9135,5.5783,5.653
2.7560,-0.2134,0.8847,6.5138,6.577
2.7650,0.0073,0.8089,7.1243,7.170
2.7760,0.3100,0.8263,7.1497,7.204
2.7840,0.2477,0.8311,7.0252,7.078
2.7940,0.2115,0.7680,6.2150,6.266
2.8050,0.0247,0.8196,5.2093,5.273
2.8210,-0.0203,0.6412,3.8970,3.949
2.8460,-0.1827,0.5770,2.9007,2.963
2.8470,-0.0955,0.5813,1.7664,1.862
2.8490,0.0316,0.7922,0.5605,0.971
2.8550,-0.0337,0.8987,-0.6119,1.088
2.8650,-0.1829,1.0412,-1.7708,2.062
2.8760,-0.3042,1.1801,-2.3137,2.615
2.8860,-0.3996,1.3759,-2.3943,2.790
2.8960,-0.3639,1.5834,-2.0603,2.624
2.9050,-0.2373,1.8571,-1.2580,2.256
2.9240,0.0071,2.1532,-0.4317,2.196
2.9260,0.3067,2.1999,0.3951,2.256
2.9360,0.4269,2.2162,0.9407,2.445
2.9450,0.4847,2.0488,1.3344,2.493
2.9540,0.4398,1.9607,1.2988,2.393
2.9650,0.4677,1.6352,1.2649,2.120
2.9750,0.5948,1.5921,0.9118,1.929
2.9840,0.5532,1.5435,0.7945,1.822
2.9960,0.5077,1.4406,1.0319,1.843
3.0060,0.2516,1.2245,1.3310,1.826
3.0190,0.1832,1.2495,1.9885,2.356
3.0350,0.2191,1.3354,2.4393,2.790
3.0370,0.2496,1.2689,2.8989,3.174
3.0460,0.5269,1.1275,2.8744,3.132
3.0540,0.6408,1.0160,2.5572,2.825
3.0640,0.8693,0.9523,2.3585,2.688
3.0750,1.0323,1.0065,2.3787,2.782
3.0830,1.1884,0.8571,2.6417,3.021
3.0940,1.1771,0.8877,2.8707,3.227
3.1030,0.9869,0.6703,3.1234,3.343
3.1140,0.6011,0.4878,3.3667,3.455
3.1380,0.2315,0.3548,3.2895,3.317
3.1400,0.1162,0.1361,3.2702,3.275
3.1440,0.0752,-0.0927,3.0837,3.086
3.1550,-0.1038,-0.2885,2.8740,2.890
3.1640,-0.3389,-0.6794,2.8468,2.946
3.1750,-0.1886,-1.0788,2.3274,2.572
3.1840,0.0181,-1.3048,2.0389,2.421
3.1950,0.2501,-1.2453,1.5123,1.975
3.2030,0.4620,-1.3405,1.1592,1.831
3.2230,0.5429,-1.5444,0.4481,1.697
3.2280,0.4493,-1.6757,-0.0896,1.737
3.2330,0.4218,-1.6836,-0.7897,1.907
3.2580,0.3913,-1.4715,-1.1214,1.891
3.2620,-0.0040,-1.2207,-1.4442,1.891
3.2640,-0.4928,-1.0660,-1.2655,1.726
3.2740,-0.8410,-1.0302,-1.0595,1.700
3.2830,-0.8173,-0.9992,-0.2373,1.312
3.2940,-0.8941,-0.8616,0.1780,1.254
3.3030,-0.5673,-0.9434,0.7378,1.325
3.3130,-0.3212,-0.9168,1.4484,1.744
3.3340,-0.4274,-1.3379,1.7689,2.259
3.3460,-0.2217,-1.5282,1.5763,2.207
3.3480,-0.1210,-1.6995,1.2627,2.121
3.3810,-0.0580,-1.5414,0.8613,1.767
3.3840,-0.0153,-1.5308,0.4510,1.596
3.3870,0.1440,-1.3492,0.4416,1.427
3.3890,0.4615,-1.1164,0.0513,1.209
3.3960,0.7442,-0.7906,0.7968,1.347
3.4020,1.3102,-0.3851,0.5196,1.461
3.4130,1.7345,-0.0303,0.3920,1.778
3.4460,1.8982,0.0354,0.5470,1.976
3.4490,1.6984,-0.1205,1.0561,2.004
3.4510,1.1639,-0.4416,1.6523,2.069
3.4550,0.6363,-0.8221,1.9925,2.247
3.4690,0.3118,-1.0490,1.6385,1.970
3.4780,0.0427,-1.1125,1.3908,1.782
3.4820,-0.6928,-1.1938,0.6997,1.547
3.4930,-1.1971,-1.2216,0.3047,1.737
3.5020,-1.4618,-1.0592,-1.1998,2.168
3.5220,-1.1605,-0.4383,-3.2325,3.462
3.5270,-0.8628,-0.3641,-5.0676,5.153
3.5330,-0.6674,-0.4851,-6.6393,6.690
3.5550,-0.3405,-0.6779,-7.5382,7.576
3.5590,0.3703,-0.8789,-7.7853,7.843
3.5620,0.6297,-0.8883,-7.9072,7.982
3.5760,0.9900,-1.3752,-7.2883,7.483
3.5820,1.1485,-1.9774,-6.3318,6.732
3.5920,2.1993,-1.5643,-6.2026,6.764
3.6010,3.1226,-1.2738,-5.7965,6.706
3.6240,2.8335,-1.4988,-5.1121,6.034
3.6320,1.9679,-1.7996,-4.5623,5.285
3.6350,1.1563,-1.9192,-3.2886,3.979
3.6550,0.6044,-2.0574,-3.1165,3.783
3.6600,1.2052,-1.5209,-1.9991,2.786
3.6630,2.1769,-0.8557,-0.3602,2.367
3.6720,2.7297,-0.4139,2.0868,3.461
3.6810,2.7882,-0.8953,3.4482,4.524
3.6910,2.2153,-1.1674,4.4268,5.086
3.7010,2.0546,-0.9880,5.4913,5.946
3.7230,1.9703,-0.4728,6.5977,6.902
3.7260,1.4380,-0.2534,8.0969,8.228
3.7310,0.9821,-0.2986,9.0866,9.144
3.7610,0.3980,-0.2789,9.2016,9.214
3.7690,-0.2697,-0.4546,8.2810,8.298
3.7710,-1.0621,-0.4761,6.5890,6.691
3.7730,-1.3999,-0.2215,4.1133,4.351
3.7800,-1.6633,-0.0962,1.7995,2.452
3.7900,-1.5220,0.1326,-0.0893,1.530
3.7990,-1.1579,0.5128,-1.3632,1.861
3.8180,-0.4962,0.7988,-2.4298,2.605
3.8200,-0.1111,0.5879,-2.3313,2.407
3.8290,-0.2595,-0.2435,-1.7542,1.790
3.8410,-0.5402,-1.1723,-1.9764,2.361
3.8500,-0.9684,-1.9811,-2.1974,3.113
3.8600,-1.2972,-2.5087,-2.4598,3.745
3.8710,-1.6048,-2.9362,-3.2148,4.640
3.8790,-2.0458,-3.0323,-3.4316,5.016
3.8890,-2.2187,-2.8758,-3.8455,5.290
3.8990,-2.2160,-2.7227,-4.5609,5.756
3.9210,-1.9357,-2.6514,-4.9464,5.937
3.9230,-1.6302,-2.5526,-5.4670,6.250
3.9290,-1.5643,-2.5983,-5.8369,6.578
3.9410,-1.1171,-2.6331,-6.2818,6.902
3.9490,-0.5222,-2.7339,-6.4678,7.041
3.9580,-0.2839,-2.5856,-6.5298,7.029
3.9690,0.0176,-2.3776,-6.5843,7.000
3.9780,0.2687,-2.0025,-6.1972,6.518
3.9880,0.2754,-1.3205,-4.5128,4.710
3.9980,-0.2021,-0.7676,-1.7945,1.962
4.0200,-1.7749,-0.9003,-0.0257,1.990
4.0210,-3.0758,-0.9171,2.0130,3.789
4.0280,-2.8971,-0.2751,3.6704,4.684
4.0390,-2.2861,0.4762,5.7714,6.226
4.0500,-1.2824,0.7829,7.7817,7.925
4.0590,-0.3373,0.5920,9.1512,9.177
4.0680,0.3456,0.3006,10.0561,10.067
4.0780,1.0775,0.3031,10.0327,10.095
4.0880,1.0275,0.3443,10.0179,10.076
4.0980,0.2647,0.2508,9.2129,9.220
4.1090,-0.6504,0.5122,7.9540,7.997
4.1340,-1.3631,0.7847,6.1555,6.353
4.1360,-1.9366,1.0427,4.7785,5.260
4.1380,-2.3634,1.2983,3.2757,4.243
4.1480,-2.8199,1.2286,1.7078,3.518
4.1580,-2.6788,0.9567,0.1794,2.850
4.1690,-2.3182,0.3893,-1.7903,2.955
4.1770,-1.7829,-0.2370,-3.4067,3.852
4.1880,-1.4155,-0.7920,-4.5695,4.849
4.1970,-0.9846,-1.2449,-5.2110,5.447
4.2070,-1.0212,-1.7547,-5.7213,6.071
4.2230,0.0060,-2.0239,-6.0588,6.388
4.2350,0.5233,-1.8424,-6.7593,7.025
4.2370,1.0011,-1.6544,-7.2115,7.466
4.2480,1.9788,-1.1929,-6.7053,7.092
4.2570,2.5133,-0.9430,-5.3648,5.999
4.2680,2.4899,-0.9206,-4.0443,4.838
4.2760,2.0601,-0.9505,-3.1919,3.916
4.2870,1.9962,-1.0042,-2.8421,3.615
4.2960,2.1034,-0.8628,-2.7117,3.539
4.3060,2.6751,-0.5665,-2.9317,4.009
4.3360,2.6719,-0.4157,-3.5477,4.461
4.3370,2.1163,-0.6690,-4.3174,4.855
4.3390,1.5643,-1.1007,-5.2742,5.610
4.3470,0.9065,-1.1616,-5.9071,6.088
4.3560,0.9367,-1.1267,-6.0361,6.211
4.3660,1.4513,-0.9198,-5.7075,5.960
4.3760,2.1144,-0.5729,-4.5739,5.071
4.3870,2.5538,-0.2087,-2.7892,3.787
4.3960,2.7162,0.1950,-1.5483,3.133
4.4060,2.5408,0.5181,-0.7765,2.707
4.4220,2.2757,0.7297,0.2787,2.406
4.4360,2.1644,1.0897,2.2721,3.322
4.4370,2.0470,1.6619,4.7376,5.422
4.4460,1.7459,2.2240,7.6161,8.124
4.4560,1.3154,2.3691,9.8983,10.263
4.4660,0.8309,2.0989,10.1276,10.376
4.4760,0.5867,1.3413,10.1248,10.230
4.4860,0.4205,0.5956,8.4182,8.450
4.4970,0.3047,0.1243,5.4977,5.508
4.5060,0.4619,-0.0508,3.6810,3.710
4.5260,0.5802,0.1377,2.4383,2.510
4.5270,0.5912,0.3781,2.0169,2.136
4.5400,0.3948,0.5097,2.2593,2.349
4.5470,0.2038,0.4309,2.7581,2.799
4.5550,-0.1759,0.4349,2.8227,2.861
4.5660,-0.4862,0.2601,2.3339,2.398
4.5750,-0.9565,-0.0679,1.8063,2.045
4.5850,-1.5454,-0.2438,0.6271,1.685
4.5940,-1.8793,-0.4890,0.2428,1.957
4.6050,-2.1424,-0.7609,0.1250,2.277
4.6190,-2.0283,-1.0559,-0.2484,2.300
4.6240,-1.6074,-1.0177,-0.5257,1.974
4.6890,-1.3289,-1.0652,-0.5655,1.795
4.6910,-1.1794,-1.1902,-1.0182,1.961
4.6920,-0.9579,-1.5465,-2.0694,2.755
4.6950,-0.9275,-1.5901,-2.9820,3.504
4.6970,-1.0646,-1.7572,-4.2073,4.682
4.6990,-0.8262,-1.8935,-5.3292,5.716
4.7000,-0.8711,-1.9246,-6.3478,6.690
4.7050,-0.6790,-1.9711,-6.9902,7.295
4.7160,-0.7698,-1.9798,-7.3427,7.644
4.7250,-0.6804,-2.2932,-7.7221,8.084
4.7400,-0.1765,-2.0101,-8.2015,8.446
4.7450,0.4896,-1.4938,-8.2843,8.432
4.7540,0.7372,-1.0700,-7.3821,7.496
4.7660,0.1866,-1.2364,-5.7563,5.891
4.7810,-0.3543,-1.5751,-3.4747,3.831
4.7850,-1.7514,-1.7494,-1.0984,2.708
4.7940,-2.2453,-1.7243,-0.1562,2.835
4.8040,-1.1008,-0.9696,-0.0409,1.468
4.8230,0.2784,-0.1851,-1.2154,1.261
4.8240,1.3228,0.1591,-2.8593,3.154
4.8990,1.5186,0.3502,-3.3837,3.725
4.9010,1.5508,0.7315,-2.0363,2.662
4.9050,1.0914,1.4058,2.4467,3.026
4.9070,-0.0440,2.5625,7.9456,8.349
4.9080,-1.1812,3.0121,10.2708,10.768
4.9090,-1.7706,3.0416,10.2330,10.821
4.9110,-2.0658,2.5703,10.2125,10.732
4.9130,-1.9748,2.0027,10.2131,10.593
4.9150,-1.5602,1.6410,10.2330,10.481
4.9230,-1.5412,1.4399,8.3769,8.638
4.9350,-1.5809,1.4667,6.0636,6.436
4.9430,-1.4647,1.4622,3.6591,4.204
4.9640,-1.1934,1.8829,1.1789,2.522
4.9650,-0.8429,2.0773,-0.3676,2.272
4.9730,-0.3140,1.7174,-0.7025,1.882
4.9830,0.1538,1.3295,0.6261,1.478
4.9930,0.6283,0.8808,2.4504,2.679
5.0030,1.1133,0.8726,3.5155,3.789
5.0130,1.0856,0.7853,3.8664,4.092
5.0240,0.8345,0.2726,2.5864,2.731
5.0380,0.2583,-0.2021,0.7644,0.832
5.0430,0.0469,-0.0749,-1.0606,1.064
5.0590,-0.1611,0.1675,-2.7137,2.724
5.0640,-0.2350,0.0355,-4.8679,4.874
5.0750,-0.0573,-0.2777,-6.4158,6.422
5.0830,0.2361,-0.5827,-7.6711,7.697
5.0930,0.5617,-0.6778,-8.4600,8.506
5.1020,0.8094,-1.0080,-8.8604,8.954
5.1130,0.9864,-1.4172,-9.1748,9.336
5.1230,1.4861,-1.6004,-9.1007,9.359
5.1320,1.8773,-1.6017,-8.1061,8.473
5.1420,2.2060,-1.5393,-6.6913,7.212
5.1570,2.0378,-1.6614,-6.5048,7.016
5.1820,1.4501,-2.0454,-6.5854,7.047
5.1850,0.9872,-2.3525,-6.8785,7.336
5.1870,0.5288,-2.4324,-7.4067,7.814
5.1920,0.2941,-2.6523,-7.7209,8.169
5.2030,0.1720,-2.4518,-8.1223,8.486
5.2120,0.1328,-2.3570,-8.6205,8.938
5.2230,0.3324,-1.9310,-8.2706,8.500
5.2460,0.6269,-1.7315,-7.3818,7.608
5.2490,0.9117,-1.7695,-5.5392,5.886
5.2530,0.6400,-1.8569,-4.7691,5.158
5.2810,0.8641,-1.4228,-2.7653,3.228
5.2830,0.5261,-0.7112,-1.3823,1.641
5.2860,0.3107,0.0732,-0.3603,0.481
5.2910,0.1305,0.7019,0.3918,0.814
5.3020,-0.1893,0.7351,1.1718,1.396
5.3130,0.0507,0.9249,2.5103,2.676
5.3210,0.6135,1.3926,4.5445,4.792
5.3310,1.1622,1.5741,6.7909,7.067
5.3410,1.4866,1.4140,9.0728,9.302
5.3550,1.5991,1.4336,10.3929,10.612
5.3920,1.3837,1.5022,10.3580,10.557
5.3950,1.2846,1.5061,10.3319,10.520
5.3970,1.4145,1.8269,10.3173,10.573
5.3990,1.7105,1.9539,10.3149,10.637
5.4010,2.1229,1.9388,9.5239,9.948
5.4130,2.1693,1.7200,7.2736,7.783
5.4200,1.6510,1.4813,5.3012,5.747
5.4310,1.0830,1.3155,3.4334,3.833
5.4410,0.6865,1.3699,2.1641,2.652
5.4540,0.3564,1.1645,1.6335,2.038
5.5090,-0.3434,1.0489,1.6956,2.023
5.5120,-1.0712,0.8738,1.7433,2.225
5.5140,-1.4248,0.8193,1.5023,2.227
5.5160,-1.8689,0.8177,1.3932,2.470
5.5180,-2.1741,0.7958,1.1631,2.591
5.5200,-2.3355,0.3713,0.9104,2.534
5.5210,-2.4776,-0.2138,0.2557,2.500
5.5310,-2.4557,-0.6554,-1.1005,2.770
5.5400,-2.3611,-1.1820,-2.4817,3.624
5.5670,-2.1068,-1.5737,-3.7843,4.608
5.5690,-1.8310,-1.9517,-5.0775,5.740
5.5730,-1.8072,-2.3404,-6.1478,6.822
5.5860,-1.9140,-2.8522,-7.1755,7.955
5.5910,-1.7094,-3.2336,-7.9948,8.792
5.6010,-1.3652,-3.5827,-8.4012,9.235
5.6100,-1.2451,-3.8520,-8.5429,9.454
5.6200,-0.8406,-3.9199,-8.7491,9.624
5.6290,-0.3863,-3.6606,-8.6446,9.396
5.6390,0.1050,-3.4355,-8.2283,8.917
5.6500,0.6457,-3.2073,-7.6722,8.341
5.6730,0.2222,-3.1947,-7.5178,8.171
5.6740,-0.0204,-3.2899,-7.5586,8.244
5.6800,-0.2066,-3.2886,-7.8086,8.475
5.6890,-0.3858,-3.0943,-7.6741,8.283
5.6990,-0.4606,-2.7027,-7.5059,7.991
5.7100,-0.0621,-2.1032,-7.6652,7.949
5.7190,0.1820,-1.7241,-6.8553,7.071
5.7360,0.0138,-1.4411,-5.2097,5.405
5.7390,0.0125,-1.3044,-3.7609,3.981
5.7620,0.0643,-1.3429,-1.6055,2.094
5.7630,-0.0393,-1.2758,1.3996,1.894
5.7680,-0.1792,-1.1672,4.4308,4.585
5.7830,-0.0308,-0.6433,6.7860,6.816
5.7880,0.0041,0.1273,9.0356,9.037
5.7980,0.1312,1.1108,10.2057,10.267
5.8090,0.6552,2.2952,10.1603,10.437
5.8190,1.5292,3.1869,10.1204,10.720
5.8340,2.2543,3.5212,10.0885,10.921
5.8420,2.7147,3.6056,10.0679,11.033
5.8680,2.9080,3.8136,10.0616,11.146
5.8710,2.4197,3.8533,10.0707,11.051
5.8750,1.5248,3.4675,10.0936,10.781
5.8800,0.7132,3.4377,7.4046,8.195
5.8880,-0.2056,3.1850,4.6197,5.615
5.8980,-1.0340,2.8130,2.0453,3.628
5.9080,-1.1123,2.8530,0.1083,3.064
5.9170,-0.9677,2.6333,-1.3591,3.117
5.9270,-0.3936,1.6793,-2.7221,3.223
5.9380,0.5757,0.5712,-3.2758,3.375
5.9560,1.6433,-0.0747,-3.4131,3.789
5.9580,1.8488,-0.5173,-3.0922,3.640
5.9670,2.1211,-0.9406,-3.6572,4.331
5.9780,1.9504,-1.3509,-4.8104,5.364
5.9870,1.5252,-1.5781,-5.7977,6.199
5.9970,1.0406,-1.8757,-7.5629,7.861
6.0090,0.7378,-1.9583,-7.8898,8.163
6.0170,0.3003,-2.1948,-9.0082,9.277
6.0280,0.4599,-2.3104,-9.5699,9.856
6.0390,0.7312,-2.4404,-9.1162,9.465
6.0470,1.2152,-2.5406,-9.1981,9.620
6.0670,1.2802,-2.6692,-9.0900,9.560
6.0690,0.9413,-2.7684,-8.5661,9.051
6.0770,1.0115,-2.6790,-7.7273,8.241
6.0870,1.2292,-2.4036,-6.9661,7.471
6.0970,1.7917,-1.8000,-6.2623,6.758
6.1090,2.0556,-1.2714,-6.1262,6.586
6.1170,1.8976,-0.8600,-5.9822,6.335
6.1260,1.5944,-0.4844,-5.9607,6.189
6.1380,0.9531,-0.2837,-5.1725,5.267
6.1510,-0.0466,-0.2252,-3.7012,3.708
6.1820,-1.0835,-0.0158,-1.7392,2.049
6.1840,-1.6930,0.4736,-0.2909,1.782
6.1860,-1.8940,0.7900,0.5932,2.136
6.1890,-1.2428,0.6080,1.0050,1.710
6.2020,0.2886,0.5400,1.8656,1.964
6.2060,1.4162,0.0754,4.1369,4.373
6.2160,2.1436,-0.7948,7.8374,8.164
6.2260,2.6513,-1.0281,9.9681,10.366
6.2360,2.6458,-0.6817,9.9467,10.315
6.2550,2.4788,0.1106,9.9384,10.243
6.2570,2.2755,0.4876,9.9400,10.209
6.2660,2.0254,0.4331,9.9472,10.161
6.2760,2.1220,0.3045,9.9564,10.185
6.2860,2.3899,0.2324,9.9645,10.250
6.2960,2.3757,-0.0898,9.4622,9.756
6.3050,1.9540,-0.6033,7.7652,8.030
6.3150,1.4383,-1.1220,6.0714,6.339
6.3250,0.9739,-1.3705,4.2613,4.581
6.3350,0.3916,-1.3597,3.1771,3.478
6.3460,-0.2643,-1.3703,2.7513,3.085
6.3730,-1.0074,-1.1918,2.4584,2.912
6.3750,-1.4177,-0.9458,2.7117,3.203
6.3770,-1.2203,-0.5075,1.8627,2.284
6.3850,-0.8605,-0.5729,0.7500,1.277
6.3950,-0.7996,-0.7340,-0.4540,1.177
6.4060,-0.8711,-0.9737,-2.1034,2.476
6.4150,-1.0190,-1.1300,-3.7242,4.023
6.4250,-1.4846,-1.4422,-5.2603,5.653
6.4350,-1.9682,-1.6357,-6.3873,6.881
6.4510,-2.2008,-2.0043,-7.4757,8.047
6.5000,-2.3671,-2.0821,-8.2386,8.821
6.5020,-2.5049,-2.0730,-8.6627,9.253
6.5040,-2.6941,-2.1441,-9.1363,9.764
6.5060,-2.5685,-2.3814,-9.3530,9.987
6.5070,-1.9940,-2.2407,-9.4690,9.933
6.5080,-1.3241,-1.9823,-9.3306,9.630
6.5140,-0.8780,-2.1960,-9.2262,9.524
6.5250,-0.9923,-2.3644,-8.7737,9.141
6.5340,-1.2119,-2.6460,-7.8653,8.387
6.5460,-1.4220,-2.9792,-7.1489,7.874
6.6400,-1.6713,-3.1815,-7.0932,7.952
6.6430,-1.7889,-3.1039,-7.3803,8.204
6.6450,-1.6208,-2.6778,-7.9836,8.575
6.6470,-1.8851,-2.1633,-7.7681,8.281
6.6490,-2.1387,-2.2509,-7.1474,7.793
6.6560,-1.9862,-2.2992,-5.5388,6.317
6.6580,-1.6783,-2.1474,-3.1254,4.147
6.6600,-1.6396,-1.7081,-0.6247,2.449
6.6620,-1.0997,-0.9246,0.6814,1.590
6.6630,-0.7418,0.1304,3.2090,3.296
6.6650,-0.9885,1.0516,6.1715,6.338
6.6680,-1.1243,1.3344,9.3008,9.463
6.6740,-1.1723,1.2235,10.0827,10.224
6.6840,-0.5597,1.2902,10.0553,10.153
6.6940,1.0458,1.9643,10.0389,10.283
6.7270,2.3753,2.5315,10.0365,10.620
6.7300,2.9966,2.7382,10.0479,10.837
6.7330,2.9273,2.6856,10.0710,10.826
6.7360,2.1001,2.9550,8.0066,8.789
6.7440,1.2180,3.0094,5.2249,6.151
6.7680,0.3323,3.0686,3.1103,4.382
6.7700,-0.5516,3.0200,1.3437,3.351
6.7730,-1.0793,2.9143,0.2436,3.117
6.7970,-1.3530,2.6353,-0.7616,3.059
6.8030,-1.2808,2.2530,-1.7167,3.109
6.8060,-0.8714,1.8181,-2.5276,3.233
6.8140,-0.2898,1.2338,-2.9616,3.221
6.8230,0.1934,0.7751,-2.5678,2.689
6.8330,0.1459,0.0150,-2.2629,2.268
6.8460,0.0293,-0.8013,-3.0275,3.132
6.8800,0.0362,-1.3787,-3.7799,4.024
6.8820,0.0117,-1.7412,-4.9919,5.287
6.8850,-0.1042,-1.9378,-6.3775,6.666
6.8870,-0.0545,-2.1546,-7.5130,7.816
6.8930,-0.0158,-2.1732,-8.1802,8.464
6.9030,0.1653,-2.2643,-8.8552,9.142
6.9120,0.3994,-2.3243,-9.2129,9.510
6.9220,0.6361,-2.4806,-9.4306,9.772
6.9320,0.9821,-2.5803,-9.3926,9.790
6.9560,1.4961,-2.7487,-9.3667,9.876
6.9580,1.9984,-2.5612,-9.0830,9.646
6.9650,2.3440,-2.2628,-8.2577,8.877
6.9730,2.4658,-2.1556,-6.9007,7.638
6.9820,2.3258,-2.2893,-5.8171,6.670
6.9920,2.7764,-2.1425,-5.5757,6.587
7.0020,3.4627,-1.8626,-5.7200,6.941
7.0110,3.2958,-1.6502,-4.9488,6.171
7.0220,2.4804,-1.4243,-4.2980,5.163
7.0310,1.2953,-1.0249,-2.7813,3.235
7.0460,0.4281,-0.5051,-0.7654,1.012
7.0840,0.1774,0.1469,2.2963,2.308
7.0870,-0.1808,0.4559,6.1534,6.173
7.0880,-0.0225,0.8882,9.6387,9.680
7.0900,0.7112,0.7930,9.8837,9.941
7.0910,1.1564,0.3613,9.8716,9.946
7.1010,1.5870,-0.0497,9.8604,9.987
7.1110,1.7253,-0.0578,9.8506,10.001
7.1210,1.6431,0.0792,9.8427,9.979
7.1310,1.5384,0.4693,9.8379,9.968
7.1450,1.4612,0.7652,9.8368,9.974
7.1770,1.3655,0.6851,9.4083,9.532
7.1800,0.9708,0.3790,7.2446,7.319
7.1820,0.9301,0.3442,4.6000,4.706
7.1830,0.8127,0.3007,2.2304,2.393
7.1910,0.7377,0.0628,0.1831,0.763
7.2010,0.6623,-0.1867,-1.3031,1.474
7.2100,0.6334,-0.5075,-2.7030,2.822
7.2200,0.7716,-0.6313,-3.9351,4.059
7.2300,0.7511,-0.5981,-4.4775,4.579
7.2420,0.8788,-0.7967,-4.9097,5.051
7.2810,0.9826,-0.8009,-5.1353,5.289
7.2830,0.8787,-0.9849,-5.4992,5.655
7.2850,0.8060,-1.2107,-5.9819,6.156
7.2870,0.6952,-1.4038,-6.3345,6.525
7.2910,0.2009,-1.4027,-6.4670,6.620
7.3030,-0.0360,-1.3701,-6.7528,6.890
7.3100,-0.2520,-1.3652,-6.8328,6.972
7.3210,-0.4887,-1.5926,-7.1674,7.358
7.3440,-0.6690,-1.6621,-7.4307,7.644
7.3460,-0.7816,-1.6978,-7.4509,7.682
7.3800,-0.5710,-1.6045,-7.3814,7.575
7.3820,-0.5321,-1.4967,-6.8021,6.985
7.3840,-0.2126,-1.5328,-6.0647,6.259
7.3860,-0.4285,-1.4726,-5.0041,5.234
7.3900,-1.0803,-1.4727,-3.1424,3.635
7.4020,-1.7969,-1.3935,-0.5217,2.333
7.4090,-2.0738,-0.8750,2.2008,3.148
7.4200,-1.9830,-0.2196,4.5797,4.995
7.4310,-1.7671,-0.1386,6.0817,6.335
7.4390,-1.5213,-0.3456,6.5164,6.701
7.4630,-2.0540,-1.1165,6.2503,6.673
7.4650,-2.1375,-1.1106,8.0081,8.362
7.4690,-0.6420,-0.1810,8.0973,8.125
7.4790,-0.2674,0.4653,6.9642,6.985
7.5120,-0.6408,0.5938,5.3052,5.377
7.5140,-1.7014,0.2891,4.5843,4.898
7.5170,-1.6931,0.5234,4.1630,4.524
7.5200,-1.3069,0.9477,3.7479,4.081
7.5290,-0.9012,1.0365,3.4168,3.682
7.5390,-0.4238,1.0565,2.7289,2.957
7.5730,0.1415,1.0394,2.4826,2.695
7.5750,0.4720,0.9378,2.2791,2.509
7.5760,-1.7669,-0.3293,2.8338,3.356
7.5780,0.2529,0.7415,2.6858,2.798
7.5900,0.4407,0.6781,2.5859,2.709
7.5980,0.4431,0.0661,1.3361,1.409
7.6080,0.2216,-0.3546,-0.0396,0.420
7.6180,0.2515,-0.4729,-0.9058,1.052
7.6290,0.3397,-0.2210,-1.4268,1.483
7.6380,0.1960,-0.2560,-2.2036,2.227
7.6580,-0.0612,-0.3277,-2.4954,2.518
7.6600,-0.3587,-0.5631,-2.0296,2.137
7.7030,-0.2789,-0.7205,-1.3366,1.544
7.7050,0.3517,-0.8536,-1.1184,1.450
7.7060,0.5462,-1.1327,-0.8567,1.522
7.7090,0.5954,-1.4594,-0.7280,1.736
7.7120,0.4994,-1.5368,-1.1808,2.001
7.7180,0.5049,-1.3967,-1.7737,2.313
7.7280,0.3728,-1.3704,-2.9433,3.268
7.7410,0.1690,-1.4979,-3.3835,3.704
7.7530,-0.1118,-1.4822,-3.9196,4.192
7.7600,-0.2806,-1.2650,-4.0116,4.216
7.7860,-0.4453,-1.0972,-3.5071,3.702
7.7870,-0.4220,-0.8383,-2.9133,3.061
7.7890,-0.2426,-0.8101,-2.5693,2.705
7.7980,0.0045,-0.7755,-2.4079,2.530
7.8070,0.1866,-0.8387,-2.2418,2.401
7.8170,0.3606,-0.5796,-2.4392,2.533
7.8280,0.9871,-0.3305,-2.6693,2.865
7.8370,1.2522,-0.3520,-2.6692,2.969
7.8550,0.8212,-0.5138,-2.6742,2.844
7.8570,0.1219,-0.6866,-2.7800,2.866
7.8910,-0.3420,-0.4523,-2.7896,2.847
7.8940,-0.5729,-0.1784,-2.9514,3.012
7.8960,-0.6879,-0.1019,-2.8972,2.980
7.8980,-0.6483,-0.1615,-2.8965,2.973
7.9060,-0.5122,-0.2939,-2.8059,2.867
7.9170,-0.1859,-0.3866,-2.8261,2.858
7.9260,0.1644,-0.4644,-2.5367,2.584
7.9360,0.3918,-0.6591,-2.1201,2.255
7.9590,0.1719,-0.6165,-1.6767,1.795
7.9600,-0.0288,-0.5334,-1.3354,1.438
7.9820,-0.2216,-0.3416,-0.5015,0.646
7.9820,-0.2454,-0.2554,-0.0793,0.363
7.9860,0.5088,0.0597,-2.5179,2.570
7.9990,-0.7378,-0.4351,-1.1582,1.441
8.0170,-1.0599,-0.0629,0.5933,1.216
8.0190,-1.1336,0.4886,0.7842,1.462
8.0260,-0.9354,0.5804,0.1493,1.111
8.0360,-0.7343,0.3589,-0.3757,0.900
8.0500,-0.3914,0.3028,-0.2099,0.538
8.0560,-0.0425,0.2314,-0.7189,0.756
8.0760,0.1664,0.5851,-1.9476,2.040
8.0770,0.3753,0.8596,-2.2219,2.412
8.0870,-0.1988,0.3784,-2.0468,2.091
