time,ax,ay,az,aT
0.0030,-2.3823,-0.3236,0.6952,2.503
0.0260,-1.6180,-0.3611,0.4814,1.726
0.0270,-1.0536,-0.4299,0.1834,1.153
0.0290,-0.8809,-0.5154,0.2123,1.042
0.0500,-0.9186,-0.6687,0.3845,1.199
0.0510,-0.8646,-0.5179,0.3316,1.061
0.1500,-0.7587,-0.1725,0.3775,0.865
0.1540,-0.7348,-0.1087,0.2936,0.799
0.1560,-0.9210,-0.1328,0.1270,0.939
0.1580,-1.5066,0.0968,0.3738,1.555
0.1590,-2.2761,0.2195,0.5120,2.343
0.1600,-2.5367,-0.0161,0.7345,2.641
0.1610,-2.2577,-0.3261,0.7366,2.397
0.1650,-1.6281,-0.4842,0.2189,1.713
0.1680,-0.7757,-0.3069,-0.5614,1.005
0.1690,-0.1124,-0.0880,-1.1284,1.137
0.1700,0.3317,-0.0824,-1.5125,1.551
0.1710,0.3755,-0.2014,-1.4429,1.505
0.1750,0.0885,-0.0591,-1.0892,1.094
0.1870,-0.2536,0.1335,-1.0803,1.118
0.2250,-0.9787,0.0491,-0.8780,1.316
0.2270,-1.3713,-0.0966,-0.7881,1.585
0.2280,-1.4127,-0.5499,-0.4176,1.572
0.2290,-0.7170,-0.5664,-0.8528,1.250
0.2620,0.0959,-0.3704,-1.1703,1.231
0.2640,0.7051,-0.2007,-1.3614,1.546
0.2650,0.9482,-0.1074,-1.4697,1.752
0.2660,1.0560,0.0349,-1.4359,1.783
0.3000,0.9186,0.1066,-1.3269,1.617
0.3010,0.7108,0.1016,-1.2331,1.427
0.3030,0.7137,0.1101,-1.0884,1.306
0.3030,0.8276,0.1650,-0.9895,1.300
0.3420,0.9590,0.3353,-0.8768,1.342
0.3430,1.0271,0.4419,-0.7561,1.350
0.3440,0.8720,0.4531,-0.6829,1.197
0.3460,0.7323,0.4718,-0.5933,1.054
0.3840,0.7125,0.5211,-0.5938,1.064
0.3860,0.7544,0.6330,-0.5417,1.124
0.3880,0.7253,0.6523,-0.5380,1.114
0.3890,0.7952,0.6737,-0.3321,1.094
0.3930,0.8359,0.7266,-0.1215,1.114
0.4190,0.8119,0.8141,-0.0806,1.153
0.4210,0.6472,0.8796,-0.0937,1.096
0.4220,0.4511,0.9538,-0.1831,1.071
0.4330,0.2978,0.9697,-0.1457,1.025
0.4760,0.1246,0.9855,-0.1187,1.000
0.4830,-0.0241,0.8895,-0.0856,0.894
0.4850,-0.1212,0.7423,-0.1646,0.770
0.4870,-0.1146,0.8640,-0.1549,0.885
0.4890,0.0504,1.0164,-0.2630,1.051
0.5130,0.1272,0.9854,-0.2214,1.018
0.5150,0.1192,0.8433,-0.1680,0.868
0.5160,0.1142,0.6562,-0.2707,0.719
0.5370,0.1325,0.5907,-0.2851,0.669
0.5380,0.2150,0.6524,-0.2555,0.733
0.5420,0.4041,0.7032,-0.0649,0.814
0.5610,0.6665,0.6387,0.1671,0.938
0.5620,0.7824,0.3823,-0.0976,0.876
0.5720,0.8751,0.1680,-0.7312,1.153
0.5970,0.9488,0.1601,-1.3192,1.633
0.5990,1.0539,0.2568,-1.6358,1.963
0.6010,1.0402,0.3090,-1.6583,1.982
0.6120,0.9415,0.3548,-1.5729,1.867
0.6280,0.7413,0.3851,-1.4392,1.664
0.6340,0.4603,0.4732,-1.3710,1.522
0.6420,0.2799,0.7462,-1.2388,1.473
0.6520,0.1254,0.9054,-1.0427,1.387
0.6620,-0.0089,0.7298,-0.8587,1.127
0.6820,0.0260,0.3799,-0.8316,0.915
0.6870,0.3100,0.1250,-0.9334,0.991
0.6920,0.8461,0.0921,-1.0870,1.381
0.7680,1.3881,0.1021,-0.9926,1.710
0.7710,1.8201,-0.0014,-0.6945,1.948
0.7740,2.0381,-0.1548,-0.2478,2.059
0.7770,2.2765,-0.3100,0.2893,2.316
0.7800,2.5013,-0.4219,0.7531,2.646
0.7840,2.5530,-0.4461,1.2650,2.884
0.7870,2.3947,-0.4858,1.6670,2.958
0.7910,2.0702,-0.6304,1.8961,2.877
0.7940,1.6775,-0.9055,1.9518,2.728
0.8000,1.4587,-0.9763,1.7545,2.482
0.8030,1.4855,-0.7256,1.2848,2.094
0.8190,1.5447,-0.5598,0.6497,1.767
0.8230,1.5258,-0.5779,-0.2315,1.648
0.8510,1.5545,-0.6176,-0.8552,1.879
0.8520,1.5842,-0.6706,-1.6103,2.356
0.8530,1.6037,-0.6890,-2.2773,2.869
0.8620,1.7319,-0.6522,-2.8625,3.409
0.9110,1.9087,-0.5963,-3.1912,3.766
0.9120,2.0319,-0.4631,-3.4214,4.006
0.9140,2.0369,-0.3692,-3.6282,4.177
0.9160,1.9670,-0.3751,-3.7527,4.254
0.9170,1.8266,-0.3919,-3.6183,4.072
0.9460,1.6445,-0.3890,-3.2422,3.656
0.9480,1.5352,-0.2579,-2.8809,3.275
0.9490,1.3294,-0.0889,-2.9933,3.276
0.9510,1.1061,0.1311,-3.5323,3.704
0.9600,0.7668,0.1361,-4.0829,4.156
0.9710,0.1266,-0.1671,-4.0853,4.091
0.9970,-0.5713,-0.8023,-3.5776,3.711
1.0020,-0.8470,-1.0865,-3.2276,3.509
1.0030,-0.6609,-0.7345,-2.9107,3.074
1.0090,-1.4071,-0.1818,-1.6951,2.211
1.0200,0.2876,0.6517,0.8740,1.127
1.0310,-0.8305,1.1344,1.1877,1.840
1.0400,-1.2953,1.3510,2.9288,3.476
1.0490,-1.7935,1.0981,3.8765,4.410
1.0590,-1.9759,0.5237,4.4177,4.868
1.0690,-1.6224,-0.0171,4.6856,4.959
1.0960,-0.8967,-0.3204,5.2273,5.313
1.0980,-0.0545,-0.4998,6.2856,6.306
1.0990,1.3184,-0.3086,6.5837,6.722
1.1090,1.6324,-0.0931,6.4459,6.650
1.1320,1.4642,0.0133,6.1145,6.287
1.1330,1.1528,0.1293,5.0355,5.167
1.1390,0.6804,0.3102,4.0027,4.072
1.1500,0.3872,0.7108,3.0866,3.191
1.1590,0.3594,0.9318,2.1148,2.339
1.1690,0.4739,1.0022,1.0130,1.502
1.1790,0.6319,0.9421,0.2713,1.166
1.2000,0.5823,0.6641,-0.1595,0.898
1.2020,0.2699,0.2604,-0.3045,0.483
1.2090,-0.0417,-0.0463,-0.3605,0.366
1.2310,-0.1109,-0.1832,-0.3369,0.399
1.2320,0.4570,-0.2495,-0.2596,0.582
1.2380,1.0203,-0.2816,-1.0446,1.487
1.2500,1.8410,-0.2813,-0.4687,1.920
1.2590,2.4136,-0.3751,0.2028,2.451
1.2690,2.4859,-0.6231,0.8471,2.699
1.2790,2.1933,-0.8847,1.2783,2.688
1.2990,1.5227,-1.0914,1.2181,2.235
1.3010,0.8981,-1.0536,1.0604,1.744
1.3090,0.4492,-0.8625,0.7768,1.245
1.3810,0.0271,-0.6766,0.3909,0.782
1.3820,-0.4820,-0.5689,0.0215,0.746
1.3830,-0.8923,-0.4531,-0.3034,1.046
1.3840,-1.0113,-0.2948,-0.5051,1.168
1.3860,-1.0817,-0.1805,-0.7350,1.320
1.3870,-1.2381,-0.1325,-0.9185,1.547
1.3910,-1.4053,-0.2243,-0.8231,1.644
1.3930,-1.4405,-0.2859,-0.9902,1.771
1.3980,-1.3133,-0.2854,-1.4560,1.981
1.4080,-1.2764,-0.2468,-1.8411,2.254
1.4470,-1.4557,-0.2471,-2.2391,2.682
1.4480,-1.5572,-0.3685,-2.6346,3.083
1.4500,-1.5183,-0.4589,-3.0437,3.432
1.4510,-1.4112,-0.4479,-3.1714,3.500
1.4570,-1.0739,-0.3877,-3.5310,3.711
1.4700,-0.9348,-0.2890,-3.7374,3.863
1.4770,-0.8624,-0.1673,-3.7070,3.810
1.4880,-0.9618,-0.0307,-3.3975,3.531
1.5140,-1.2387,0.0210,-2.9809,3.228
1.5160,-1.4709,0.2497,-2.7786,3.154
1.5190,-1.8477,0.2988,-2.7239,3.305
1.5270,-2.1395,0.4379,-2.6681,3.448
1.5610,-2.1977,0.3894,-2.6370,3.455
1.5630,-1.9901,0.2148,-2.6359,3.310
1.5650,-1.6780,0.0043,-2.6187,3.110
1.5670,-1.1202,-0.1505,-2.5301,2.771
1.5770,-0.5109,-0.1210,-2.1689,2.232
1.5870,0.0014,0.0265,-1.6672,1.667
1.6200,0.4130,0.1054,-1.1664,1.242
1.6230,0.5783,0.0898,-0.5929,0.833
1.6260,0.5287,0.1203,-0.0786,0.548
1.6280,0.4484,0.1513,0.1956,0.512
1.6790,0.2539,0.2050,0.4792,0.580
1.6800,0.0974,0.2941,1.0302,1.076
1.6820,0.3106,0.4407,0.8462,1.003
1.6830,0.6926,0.6223,0.5108,1.062
1.6850,0.8509,0.6681,0.3667,1.142
1.6860,0.6280,0.5496,0.7294,1.108
1.6960,0.0949,0.2741,1.4654,1.494
1.7070,-0.3171,-0.0293,1.9846,2.010
1.7300,-0.4530,-0.0252,2.5082,2.549
1.7310,-0.3619,0.2304,3.4469,3.474
1.7360,-0.2299,0.3983,4.7992,4.821
1.7780,0.0100,0.2935,5.3124,5.321
1.7800,0.3396,0.1523,5.0588,5.072
1.7810,0.6598,0.1502,4.2619,4.315
1.7820,0.8528,0.0608,3.1953,3.308
1.7850,0.8655,-0.2752,2.2059,2.386
1.7970,0.9434,-0.5727,1.4653,1.834
1.8060,1.0154,-0.7207,1.0227,1.611
1.8380,1.1282,-0.7964,0.6906,1.544
1.8400,1.4083,-0.8750,0.4710,1.724
1.8410,1.6427,-0.8897,0.2778,1.889
1.8670,1.7229,-0.8899,-0.0518,1.940
1.8690,1.5857,-1.0059,-0.6133,1.975
1.8700,1.3326,-1.2037,-0.9865,2.049
1.8750,1.1517,-1.3884,-1.2602,2.201
1.8850,1.1373,-1.5031,-1.6326,2.494
1.9160,1.0912,-1.5134,-1.9512,2.700
1.9180,1.0847,-1.5435,-2.2312,2.922
1.9190,1.0487,-1.6841,-2.4704,3.168
1.9250,0.9669,-1.7310,-2.6425,3.304
1.9560,0.9192,-1.7742,-2.8834,3.508
1.9580,0.8289,-1.7929,-3.0097,3.600
1.9600,0.8172,-1.8170,-3.2159,3.783
1.9660,0.8508,-1.8334,-3.2611,3.837
1.9750,0.8701,-1.7526,-3.1491,3.708
1.9840,0.9220,-1.6485,-2.9933,3.539
2.0270,0.9434,-1.5375,-2.8554,3.377
2.0310,0.8696,-1.3772,-2.6015,3.069
2.0340,0.7450,-1.2034,-2.1950,2.612
2.0350,0.6076,-1.0778,-1.6742,2.082
2.0370,0.4166,-0.9422,-1.0946,1.503
2.0810,0.1277,-0.7578,-0.4874,0.910
2.0830,-0.1793,-0.5882,0.0561,0.617
2.0840,-0.5664,-0.5474,0.5121,0.940
2.0860,-1.0374,-0.6595,0.6163,1.375
2.0870,-1.0904,-0.7501,0.4809,1.408
2.0950,-1.0527,-0.7907,0.2202,1.335
2.1030,-1.0177,-0.7765,-0.1165,1.285
2.1290,-1.0352,-0.7933,-0.4419,1.377
2.1310,-1.0679,-0.8649,-0.7025,1.543
2.1340,-1.1000,-0.9343,-0.7274,1.616
2.1780,-1.1859,-0.9255,-0.4161,1.561
2.1790,-1.3018,-0.9634,0.2085,1.633
2.1800,-1.5297,-1.0405,0.8857,2.051
2.1820,-1.9232,-1.1230,1.4861,2.677
2.1840,-2.3965,-1.3017,1.8135,3.275
2.1940,-2.6875,-1.5575,1.7174,3.549
2.2030,-2.5906,-1.6509,1.5945,3.461
2.2350,-1.9869,-1.3908,1.7328,2.981
2.2370,-1.0647,-0.9082,2.0847,2.511
2.2390,-0.1558,-0.4883,2.5104,2.562
2.2730,0.6316,-0.1678,3.0414,3.111
2.2750,1.1206,-0.0391,3.4816,3.658
2.2770,1.2043,-0.0757,3.7118,3.903
2.2790,0.8913,-0.3693,3.3944,3.529
2.2830,0.4020,-0.7542,2.7819,2.910
2.3010,-0.0104,-1.0846,1.9421,2.224
2.3030,-0.4181,-1.3807,1.0432,1.780
2.3470,-0.6513,-1.4904,0.3248,1.659
2.3480,-0.7721,-1.4016,-0.1143,1.604
2.3490,-0.9769,-1.2432,-0.5661,1.679
2.3510,-1.2087,-1.0355,-1.1106,1.941
2.3520,-1.4424,-0.8401,-1.6408,2.341
2.3810,-1.5000,-0.6988,-2.2972,2.831
2.3830,-2.0386,-0.5820,-2.7128,3.443
2.3850,-2.4473,-0.6538,-3.1081,4.010
2.3980,-2.7464,-0.8177,-3.3955,4.443
2.4020,-2.8028,-0.8963,-3.7172,4.741
2.4450,-2.7217,-0.7959,-3.9188,4.837
2.4470,-2.3854,-0.5344,-4.0607,4.740
2.4480,-1.9030,-0.2585,-4.0405,4.474
2.4500,-1.4662,0.0277,-3.7825,4.057
2.4510,-1.0690,0.1747,-3.5493,3.711
2.4730,-0.7163,0.2028,-3.2707,3.354
2.4740,-0.4490,0.1220,-3.0445,3.080
2.4810,-0.3244,0.0370,-3.0346,3.052
2.4920,0.1010,-0.0111,-2.7255,2.727
2.5010,0.4644,0.0268,-2.8520,2.890
2.5350,0.7569,0.0603,-3.1070,3.198
2.5370,0.8992,0.0756,-3.2115,3.336
2.5400,0.9132,0.1637,-3.1707,3.304
2.5420,0.9747,0.3790,-3.0928,3.265
2.5660,1.0303,0.6003,-2.8926,3.129
2.5670,1.0158,0.8275,-2.7365,3.034
2.5710,0.9814,0.9955,-2.5010,2.865
2.5800,0.9159,1.1051,-2.3109,2.720
2.6170,0.8553,1.1869,-2.1526,2.603
2.6180,0.7511,1.2082,-1.9727,2.432
2.6200,0.6629,1.1953,-1.7428,2.215
2.6210,0.5592,1.1581,-1.4796,1.960
2.6320,0.5887,1.1966,-1.2715,1.843
2.6600,0.7378,1.1452,-1.0173,1.700
2.6610,0.8762,1.0939,-0.5462,1.504
2.6630,0.9955,1.0348,0.0145,1.436
2.6700,1.2219,1.0547,0.7913,1.798
2.6800,1.3974,1.1063,1.5790,2.381
2.7160,1.6309,1.1970,2.1765,2.971
2.7180,1.6027,1.0562,2.2816,2.982
2.7200,1.4618,0.8169,2.4929,3.003
2.7220,1.3821,0.6362,2.5090,2.934
2.7640,1.1126,0.5441,2.7974,3.059
2.7660,0.7234,0.4114,3.6305,3.725
2.7670,0.2943,0.4174,4.7977,4.825
2.7680,0.1001,0.6159,5.6554,5.690
2.7700,0.1684,0.9515,6.1761,6.251
2.7800,0.2868,1.1256,6.3424,6.448
2.8150,0.2369,0.8567,6.1399,6.204
2.8170,0.1013,0.2403,5.5402,5.546
2.8180,-0.0142,-0.4547,4.4415,4.465
2.8200,0.0923,-0.9582,3.3577,3.493
2.8410,0.3930,-1.1974,2.3807,2.694
2.8430,0.7816,-1.2577,1.6044,2.183
2.8490,1.0488,-1.2629,1.1658,2.013
2.8610,1.1606,-1.2097,0.9007,1.903
2.8690,1.0429,-1.2267,0.6750,1.746
2.8790,0.7606,-1.2682,0.4543,1.547
2.9070,0.3866,-1.2469,0.2919,1.338
2.9090,0.0041,-1.2020,-0.0991,1.206
2.9100,-0.3045,-1.2045,-0.5926,1.376
2.9190,-0.4672,-1.2584,-1.1831,1.789
2.9410,-0.5144,-1.2722,-1.7566,2.229
2.9440,-0.5342,-1.3326,-2.2881,2.701
2.9500,-0.5641,-1.4463,-2.8809,3.273
2.9630,-0.6161,-1.6111,-3.4380,3.846
2.9680,-0.7637,-1.7472,-3.8747,4.318
2.9790,-0.9353,-1.8731,-4.2512,4.739
3.0150,-1.0235,-1.9111,-4.5986,5.084
3.0170,-1.0440,-1.9124,-4.8881,5.352
3.0180,-1.0733,-1.8752,-5.0568,5.499
3.0230,-1.1032,-1.8295,-5.1777,5.601
3.0350,-1.1351,-1.7789,-5.2367,5.646
3.0380,-1.2352,-1.6971,-5.2422,5.647
3.0490,-1.3301,-1.6046,-5.1419,5.548
3.0580,-1.4416,-1.4666,-4.9905,5.398
3.0680,-1.5480,-1.3662,-4.7496,5.179
3.0780,-1.6162,-1.3031,-4.4608,4.920
3.1000,-1.6119,-1.1668,-4.1364,4.590
3.1010,-1.4624,-1.0342,-3.8053,4.206
3.1420,-1.2584,-0.9142,-3.3779,3.719
3.1450,-1.0284,-0.7694,-2.8743,3.148
3.1460,-0.8484,-0.6583,-2.2345,2.479
3.1480,-0.8009,-0.6707,-1.4681,1.802
3.1490,-0.7502,-0.6934,-0.6553,1.214
3.1590,-0.4992,-0.7457,-0.0116,0.897
3.1680,-0.2580,-0.6209,0.6236,0.917
3.1780,-0.0795,-0.5034,1.2744,1.373
3.2370,0.0329,-0.3984,1.9988,2.038
3.2480,0.1766,-0.2691,2.6779,2.697
3.2510,0.3260,-0.1156,3.2431,3.261
3.2520,0.3025,-0.0822,3.4675,3.482
3.2540,-0.1187,-0.3324,3.2489,3.268
3.2570,-0.9827,-0.8042,2.8384,3.110
3.2590,-1.9053,-1.2413,2.6828,3.517
3.2610,-2.4790,-1.3409,2.5370,3.792
3.2680,-2.3952,-0.9964,2.7045,3.748
3.2770,-1.6117,-0.5071,3.1895,3.609
3.3070,-0.3279,0.1449,3.7707,3.788
3.3090,0.8627,0.7038,4.2443,4.388
3.3130,1.5325,0.7713,4.6625,4.968
3.3170,1.7049,0.0092,4.2987,4.624
3.3370,1.5450,-0.4147,3.4758,3.826
3.3380,1.4832,-0.5900,2.5441,3.003
3.3470,1.4221,-0.5815,1.7537,2.331
3.3570,1.2619,-0.4281,1.2077,1.798
3.3670,0.8852,-0.1458,0.7859,1.193
3.3770,0.2140,0.0536,0.3378,0.403
3.4030,-0.4901,0.2711,-0.0319,0.561
3.4050,-1.0755,0.4897,-0.5021,1.284
3.4060,-1.6349,0.6884,-1.1188,2.097
3.4170,-2.0938,0.8593,-1.7774,2.878
3.4340,-2.4035,0.9648,-2.5161,3.611
3.4370,-2.5068,0.9913,-3.2356,4.211
3.4470,-2.4114,0.9080,-3.8471,4.630
3.4570,-2.0993,0.7290,-4.3507,4.885
3.4670,-1.6742,0.6084,-4.7473,5.071
3.4770,-1.0683,0.5404,-5.0930,5.232
3.5060,-0.5198,0.4200,-5.2015,5.244
3.5070,-0.0903,0.2656,-5.2289,5.236
3.5090,0.2331,0.1517,-5.1465,5.154
3.5160,0.5323,0.1017,-4.9327,4.962
3.5340,0.7026,0.1334,-4.6015,4.657
3.5360,0.7921,0.1934,-4.4100,4.485
3.5460,0.7927,0.2310,-4.3183,4.397
3.5560,0.7745,0.2356,-4.1848,4.262
3.5660,0.6833,0.2475,-4.0571,4.122
3.5760,0.6213,0.2730,-3.7826,3.843
3.5870,0.6001,0.3509,-3.4039,3.474
3.6230,0.5654,0.4689,-3.0855,3.172
3.6270,0.5768,0.6366,-2.7857,2.915
3.6290,0.5428,0.6984,-2.3757,2.535
3.6310,0.4714,0.6825,-1.9355,2.106
3.6840,0.4681,0.6567,-1.5949,1.787
3.6880,0.5725,0.6452,-1.3357,1.590
3.6910,0.5858,0.5960,-1.0472,1.340
3.6950,0.4949,0.5846,-0.7398,1.065
3.6980,0.4948,0.5729,-0.5143,0.915
3.7010,0.4991,0.5047,-0.2140,0.741
3.7050,0.4428,0.5113,0.2265,0.713
3.7070,0.6057,0.6084,0.6951,1.105
3.7180,0.8302,0.8563,1.1794,1.677
3.7260,0.9565,1.0495,1.5534,2.105
3.7530,0.8988,1.0845,1.6994,2.207
3.7540,0.6693,0.9371,2.1095,2.403
3.7550,0.1094,0.6672,2.9689,3.045
3.7660,-0.6136,0.4363,4.1430,4.211
3.8040,-0.9214,0.5246,5.4214,5.524
3.8050,-0.9796,0.8608,6.4448,6.575
3.8070,-0.7690,1.2207,7.1751,7.319
3.8100,-0.4493,1.2136,7.3962,7.509
3.8140,-0.3218,0.6408,7.4107,7.445
3.8250,-0.2164,-0.2350,6.9053,6.913
3.8560,0.0359,-0.8046,5.9067,5.961
3.8580,0.3630,-1.0437,4.9817,5.103
3.8600,0.6325,-1.1492,4.2024,4.402
3.8670,0.7313,-1.0890,3.7771,3.998
3.9050,0.7167,-0.8309,3.5340,3.700
3.9060,0.7499,-0.4164,3.1855,3.299
3.9070,0.6184,-0.0631,2.9448,3.010
3.9080,0.3486,0.1229,2.5506,2.577
3.9130,0.1402,0.1076,1.9728,1.981
3.9240,0.0504,-0.0795,1.2354,1.239
3.9560,0.0847,-0.3803,0.4435,0.590
3.9570,0.4405,-0.6390,-0.8429,1.146
3.9580,0.7548,-0.7354,-1.6145,1.928
3.9630,0.8769,-0.8929,-2.3372,2.651
3.9980,0.8350,-1.1404,-2.9791,3.297
4.0000,0.7500,-1.3205,-3.5454,3.857
4.0010,0.6942,-1.3913,-4.1264,4.410
4.0060,0.6120,-1.6048,-4.5263,4.841
4.0170,0.4450,-1.7151,-4.8230,5.138
4.0460,0.1908,-1.7746,-4.8835,5.199
4.0550,-0.0340,-1.7528,-4.9828,5.282
4.0570,-0.1190,-1.6731,-5.0968,5.366
4.0580,-0.1947,-1.6116,-5.2424,5.488
4.0870,-0.3307,-1.6142,-5.2055,5.460
4.0880,-0.4774,-1.6438,-5.0557,5.338
4.0900,-0.7056,-1.7353,-4.7458,5.102
4.0920,-0.9340,-1.7554,-4.4610,4.884
4.1030,-1.0564,-1.7299,-4.1362,4.606
4.1120,-1.1181,-1.6796,-3.6096,4.135
4.1440,-1.0618,-1.6570,-3.0390,3.621
4.1470,-1.1393,-1.7604,-2.4822,3.249
4.1480,-1.3745,-1.9759,-1.9998,3.129
4.1520,-1.5742,-2.1447,-1.4895,3.049
4.1630,-1.5565,-2.3191,-0.9503,2.950
4.1730,-1.3414,-2.3302,-0.4916,2.733
4.1830,-1.0524,-2.0770,-0.0023,2.328
4.1920,-0.6235,-1.7126,0.6000,1.919
4.2200,-0.1394,-1.3696,1.4291,1.984
4.2210,0.3791,-0.9433,1.9822,2.228
4.2220,0.1995,-0.5508,2.5019,2.570
4.2320,-0.0416,-0.4873,2.4725,2.520
4.2670,-0.4867,-0.6317,2.3031,2.437
4.2690,-0.8812,-0.8472,1.6720,2.071
4.2700,-1.2522,-0.9276,1.2294,1.985
4.2720,-1.1653,-0.5951,0.5590,1.423
4.2820,-2.0661,-0.6104,2.7744,3.513
4.2960,-2.0853,-0.5693,1.9925,2.940
4.3250,-1.6441,0.0943,2.2461,2.785
4.3270,-0.8160,0.7792,2.6147,2.848
4.3290,-0.1446,1.0189,2.6040,2.800
4.3320,0.0469,0.6451,2.5442,2.625
4.3860,-0.0481,0.0370,2.2363,2.237
4.3890,0.0097,-0.4169,1.9055,1.951
4.3910,0.1502,-0.7278,1.3133,1.509
4.3920,0.3236,-0.8282,0.6927,1.127
4.3930,0.6647,-0.8099,0.3241,1.097
4.3950,0.9516,-0.7218,-0.0269,1.195
4.4010,1.1198,-0.5734,-0.3018,1.294
4.4110,1.0473,-0.4595,-0.5743,1.280
4.4330,0.8078,-0.4094,-0.9611,1.321
4.4350,0.5110,-0.3462,-1.4839,1.607
4.4410,0.2612,-0.1368,-1.9451,1.967
4.5030,0.0873,0.0745,-2.2787,2.282
4.5040,-0.1117,0.2785,-2.5966,2.614
4.5060,-0.2189,0.3152,-2.8839,2.909
4.5070,-0.2460,0.4112,-3.3622,3.396
4.5080,-0.3085,0.5694,-3.7441,3.800
4.5100,-0.3005,0.6613,-4.0030,4.068
4.5110,-0.1561,0.7057,-4.1258,4.189
4.5210,0.0036,0.7137,-4.0553,4.118
4.5310,0.2398,0.7646,-3.8463,3.929
4.5620,0.6666,0.9775,-3.4124,3.612
4.5640,0.6634,1.0448,-3.3631,3.584
4.5660,0.4452,0.9420,-3.4392,3.594
4.6040,0.0858,0.8161,-3.4592,3.555
4.6060,-0.1208,0.7653,-3.3736,3.461
4.6070,-0.2039,0.8420,-3.3046,3.416
4.6100,-0.2272,0.9861,-3.0722,3.235
4.6110,-0.1429,1.0713,-2.7610,2.965
4.6210,0.0214,1.1932,-2.4133,2.692
4.6300,0.1530,1.2785,-2.1896,2.540
4.6520,0.3188,1.3062,-2.1018,2.495
4.6540,0.4905,1.2482,-2.0208,2.425
4.6600,0.6468,1.1715,-2.1230,2.510
4.7340,0.6474,1.1443,-2.1786,2.545
4.7350,0.8079,1.0206,-2.0226,2.405
4.7360,0.9048,0.9123,-1.8768,2.274
4.7370,1.0552,0.9884,-1.6235,2.174
4.7390,1.1974,1.0803,-1.3797,2.122
4.7400,1.3152,1.2595,-1.0570,2.105
4.7410,1.4732,1.3849,-0.2310,2.035
4.7420,1.8242,1.3185,1.0498,2.484
4.7510,2.1258,1.2682,2.0805,3.234
4.7590,2.1908,1.2886,2.4712,3.545
4.7830,2.3387,1.3504,2.5991,3.748
4.7840,2.3130,1.0953,2.8044,3.797
4.7990,2.0963,0.7300,3.3388,4.009
4.8010,2.0669,0.6044,3.6106,4.204
4.8580,2.4154,0.8167,3.4101,4.258
4.8590,2.7172,0.9352,3.1252,4.246
4.8600,2.7224,0.7942,2.8530,4.023
4.8620,2.5333,0.4267,2.6828,3.714
4.8630,2.4661,0.1054,2.6090,3.592
4.8640,2.7067,0.0108,2.6477,3.786
4.8860,3.0708,-0.0125,2.9175,4.236
4.8880,3.1249,-0.2876,3.3449,4.587
4.8890,2.8881,-0.8005,3.6342,4.711
4.9240,2.6404,-1.2496,3.9723,4.931
4.9250,2.3838,-1.6411,4.0103,4.946
4.9270,2.1542,-1.8190,4.0170,4.908
4.9290,1.8647,-1.8873,4.0189,4.816
4.9520,1.4793,-1.9729,3.8884,4.604
4.9540,1.1125,-1.9553,3.5517,4.204
4.9580,0.9155,-1.7644,3.2567,3.815
4.9920,0.6487,-1.6414,2.8396,3.343
4.9930,0.2005,-1.7273,2.1387,2.756
4.9940,-0.2398,-1.8252,1.2520,2.226
4.9990,-0.5976,-1.8999,0.3383,2.020
5.0070,-0.9362,-2.0367,-0.5423,2.306
5.0290,-1.1325,-2.0964,-1.4242,2.776
5.0300,-1.2777,-2.1315,-2.1657,3.296
5.0460,-1.3902,-2.2156,-2.8357,3.858
5.0480,-1.3176,-2.3541,-3.7008,4.580
5.0680,-1.6502,-2.3521,-4.3137,5.183
5.0710,-1.7698,-2.4263,-4.4029,5.330
5.0780,-1.7277,-2.3361,-4.1159,5.038
5.0870,-1.5490,-2.3178,-3.8485,4.752
5.1090,-1.2994,-2.3991,-4.1326,4.952
5.1110,-1.2636,-2.4380,-4.2864,5.091
5.2040,-1.2691,-2.5386,-4.3898,5.227
5.2070,-1.1855,-2.6460,-4.4667,5.325
5.2080,-1.1215,-2.7700,-4.3355,5.266
5.2100,-1.1047,-2.8203,-4.1850,5.166
5.2120,-1.0122,-2.7887,-3.9882,4.971
5.2140,-1.0541,-2.7337,-3.7955,4.795
5.2150,-1.3343,-2.5838,-3.1326,4.274
5.2170,-1.6060,-2.6517,-2.5761,4.031
5.2180,-1.7968,-2.7714,-1.8302,3.776
5.2190,-1.9730,-2.8060,-0.8419,3.532
5.2210,-1.9166,-2.6842,-0.0226,3.298
5.2300,-1.8135,-2.4972,0.4354,3.117
5.2380,-1.7449,-2.3157,0.6169,2.964
5.2670,-1.7608,-2.3493,0.5783,2.992
5.2680,-1.6625,-2.2824,0.2083,2.831
5.2700,-1.4553,-2.0480,-0.2675,2.527
5.2770,-1.4402,-1.8601,-0.5981,2.427
5.3190,-1.8428,-1.9306,-0.7720,2.778
5.3210,-2.5692,-2.1371,-0.7233,3.419
5.3220,-3.1362,-2.1621,-0.7125,3.875
5.3230,-3.2297,-1.7944,-0.6737,3.756
5.3260,-2.7349,-1.3023,-0.6957,3.108
5.3460,-1.8316,-0.8579,-0.6590,2.127
5.3680,-0.9061,-0.6652,-0.3138,1.167
5.3690,-0.2753,-0.7340,0.0598,0.786
5.3710,0.1533,-1.0137,0.2764,1.062
5.3760,0.6416,-1.0908,0.2928,1.299
5.4070,1.2531,-0.8828,0.1105,1.537
5.4090,1.7734,-0.5415,0.3633,1.889
5.4100,2.0607,-0.2828,0.7402,2.208
5.4160,2.1566,-0.0865,1.0769,2.412
5.4250,2.1519,0.0693,1.1950,2.462
5.4480,2.2174,0.2433,1.2583,2.561
5.4500,2.2539,0.4494,1.4380,2.711
5.4550,2.3380,0.8184,1.3783,2.835
5.4960,2.2618,1.2616,0.9779,2.768
5.4980,1.8439,1.4993,0.7607,2.495
5.4990,1.3585,1.5144,0.8465,2.204
5.5000,1.0409,1.5770,1.0614,2.167
5.5050,0.8295,1.6518,1.3075,2.264
5.5160,0.6227,1.6219,1.3471,2.198
5.5250,0.5006,1.6425,1.3260,2.169
5.5460,0.4810,1.6674,1.1603,2.088
5.5490,0.5770,1.6985,0.6954,1.924
5.5570,0.6892,1.6392,0.1130,1.782
5.6330,0.7398,1.6452,-0.5138,1.876
5.6340,0.7850,1.6650,-1.1546,2.173
5.6370,0.6945,1.5659,-1.6050,2.347
5.6390,0.5002,1.4216,-1.7720,2.326
5.6400,0.2653,1.4116,-1.9499,2.422
5.6430,0.0130,1.4470,-2.2613,2.685
5.6440,-0.2497,1.4791,-2.4210,2.848
5.6470,-0.5423,1.4990,-2.5274,2.988
5.6480,-0.8818,1.4987,-2.4787,3.028
5.6550,-1.1624,1.5048,-2.5011,3.142
5.6890,-1.3360,1.5146,-2.3774,3.119
5.6900,-1.4612,1.4259,-2.1329,2.953
5.6920,-1.4871,1.2889,-1.9955,2.803
5.6930,-1.4305,1.1494,-1.8572,2.611
5.7200,-1.3693,1.1101,-1.8423,2.550
5.7230,-1.2232,1.1132,-1.7411,2.401
5.7250,-1.0622,1.1213,-1.6283,2.244
5.7480,-1.0062,1.0604,-1.5872,2.158
5.7490,-0.9502,0.9782,-1.5285,2.048
5.7540,-0.9428,0.9148,-1.4617,1.965
5.8120,-0.9426,0.8789,-1.3993,1.902
5.8150,-0.8713,0.8201,-1.3397,1.796
5.8160,-0.7369,0.8104,-1.4081,1.784
5.8180,-0.4147,1.0284,-1.3824,1.772
5.8190,-0.1892,0.9892,-1.1208,1.507
5.8200,-0.0862,0.8053,-0.8200,1.153
5.8230,-0.0436,0.5654,-0.6012,0.826
5.8330,0.0857,0.3746,-0.5144,0.642
5.8440,0.4316,0.3085,-0.5417,0.758
5.8690,1.0960,0.4105,-0.5870,1.309
5.8710,1.8454,0.5998,-0.5437,2.015
5.8720,2.4235,0.6678,-0.2701,2.528
5.9060,2.7185,0.5311,-0.0089,2.770
5.9080,2.8032,0.1769,0.2732,2.822
5.9100,2.7696,-0.1579,0.9014,2.917
5.9140,2.8402,-0.2958,1.6570,3.301
5.9220,3.1604,-0.1515,2.4548,4.005
5.9430,3.6010,-0.0004,3.1610,4.792
5.9440,3.6785,-0.2811,4.2752,5.647
5.9520,3.0981,-1.0274,4.7654,5.776
6.0010,2.4458,-1.8437,5.4871,6.284
6.0020,2.1159,-2.4265,5.7168,6.561
6.0040,2.0213,-2.5548,5.9113,6.750
6.0050,2.0824,-2.4479,5.9392,6.753
6.0080,1.8420,-2.3152,5.6607,6.387
6.0130,1.3610,-2.2252,5.4014,5.998
6.0220,0.7568,-2.1539,4.7278,5.250
6.0440,0.2623,-2.0220,3.6782,4.205
6.0460,-0.1082,-1.8323,2.3390,2.973
6.0520,-0.4970,-1.7213,1.0373,2.070
6.0830,-0.8839,-1.6446,-0.2378,1.882
6.0850,-1.1226,-1.5572,-1.3193,2.329
6.0860,-1.2724,-1.4329,-2.1159,2.855
6.0940,-1.4490,-1.4104,-2.6748,3.353
6.1010,-1.5968,-1.4777,-3.2173,3.884
6.1120,-1.6513,-1.5663,-3.6810,4.328
6.1220,-1.5829,-1.5514,-4.1700,4.722
6.1430,-1.4834,-1.5203,-4.6662,5.127
6.1450,-1.4067,-1.4851,-5.1094,5.504
6.1550,-1.3543,-1.5189,-5.4296,5.798
6.1800,-1.3305,-1.5711,-5.6993,6.060
6.1820,-1.2284,-1.6019,-5.8371,6.176
6.1840,-1.1672,-1.5807,-5.8179,6.141
6.1950,-1.0602,-1.5747,-5.6844,5.993
6.2010,-0.9847,-1.5768,-5.3845,5.696
6.2120,-0.9183,-1.5537,-4.9142,5.235
6.2210,-0.8056,-1.5870,-4.4076,4.753
6.2420,-0.6840,-1.6004,-4.0461,4.405
6.2440,-0.5001,-1.5166,-3.5768,3.917
6.2950,-0.2849,-1.4599,-2.9793,3.330
6.2970,-0.2398,-1.5799,-2.4077,2.890
6.2990,-0.2310,-1.8146,-1.9401,2.667
6.3000,-0.1763,-2.0080,-1.4536,2.485
6.3010,-0.0693,-2.0213,-0.9194,2.222
6.3020,0.0433,-1.9585,-0.3645,1.993
6.3110,0.0546,-1.8042,0.1106,1.808
6.3200,0.0002,-1.6128,0.5140,1.693
6.3410,-0.0550,-1.3709,0.8893,1.635
6.3420,-0.0150,-1.0768,1.2265,1.632
6.3500,-0.0478,-0.8378,1.3346,1.577
6.3980,-0.0437,-0.7259,1.4980,1.665
6.4000,-0.1550,-0.6626,1.4987,1.646
6.4010,-0.3224,-0.6046,1.3568,1.520
6.4020,-0.6244,-0.6148,1.2908,1.560
6.4040,-1.0950,-0.7152,1.2203,1.789
6.4100,-1.5597,-0.6889,1.3938,2.202
6.4200,-1.6846,-0.5278,1.6824,2.439
6.4490,-1.2644,-0.1839,2.3767,2.698
6.4500,-0.7752,-0.1620,2.6360,2.752
6.4520,-0.1983,-0.2401,2.5668,2.586
6.4810,0.3715,-0.2299,2.3741,2.414
6.4830,0.8037,-0.2679,2.0125,2.183
6.4840,1.0703,-0.4352,1.6474,2.012
6.4940,1.2277,-0.4733,1.4147,1.932
6.4990,1.4586,-0.4219,1.2668,1.977
6.5100,1.6524,-0.2116,1.3570,2.149
6.5190,1.6983,-0.0397,1.4698,2.246
6.5410,1.5272,0.0662,1.5789,2.198
6.5420,1.1602,0.1418,1.6293,2.005
6.5850,0.6433,0.2633,1.6210,1.764
6.5870,0.1490,0.3416,1.4422,1.490
6.5900,-0.2462,0.3003,1.2177,1.278
6.5910,-0.5492,0.3556,0.9700,1.170
6.5930,-0.7563,0.4453,0.5717,1.047
6.6000,-0.8020,0.5080,0.1176,0.957
6.6270,-0.7471,0.4772,-0.4688,1.003
6.6280,-0.4962,0.4382,-1.0335,1.227
6.6300,-0.2142,0.4136,-1.4646,1.537
6.6820,0.0491,0.4378,-2.0624,2.109
6.6840,0.1830,0.4745,-2.5851,2.635
6.6850,0.2230,0.4837,-2.9671,3.014
6.6870,0.1468,0.4802,-3.2541,3.293
6.6890,0.0824,0.4777,-3.4631,3.497
6.6900,0.0559,0.5139,-3.5823,3.619
6.6990,0.0518,0.6003,-3.6629,3.712
6.7250,0.0255,0.6712,-3.7129,3.773
6.7270,-0.0856,0.6692,-3.7383,3.799
6.7280,-0.1639,0.6882,-3.8137,3.879
6.7760,-0.2417,0.7331,-3.8147,3.892
6.7780,-0.2651,0.7373,-3.7424,3.824
6.7790,-0.2812,0.8095,-3.6612,3.760
6.7810,-0.1869,0.9008,-3.5255,3.644
6.7820,-0.1421,0.9074,-3.3050,3.430
6.7880,-0.1015,0.8872,-3.2102,3.332
6.7980,0.0058,0.8825,-3.1253,3.247
6.8330,0.1915,0.9234,-2.8953,3.045
6.8350,0.4052,0.9844,-2.6040,2.813
6.8370,0.5789,1.0584,-2.1887,2.499
6.8380,0.6834,1.1279,-1.6625,2.122
6.9010,0.7711,1.2418,-1.0479,1.799
6.9010,0.9484,1.3766,-0.0871,1.674
6.9020,1.0176,1.4130,0.2002,1.753
6.9030,1.1802,1.3879,0.6794,1.944
6.9040,1.4327,1.3803,1.0485,2.249
6.9050,1.7174,1.3938,1.1788,2.506
6.9060,1.9697,1.4267,1.2083,2.716
6.9270,2.0517,1.4176,1.2307,2.781
6.9290,1.8932,1.2598,1.3340,2.636
6.9420,1.4068,0.9167,1.6712,2.369
6.9870,0.8903,0.5700,2.3238,2.553
6.9890,0.5986,0.4247,3.0167,3.105
6.9900,0.5698,0.5407,3.6822,3.765
6.9910,0.7205,0.5800,4.5232,4.617
6.9930,0.9548,0.3890,5.2817,5.381
6.9960,1.1266,0.0090,5.5213,5.635
7.0080,1.3179,-0.4790,5.4282,5.606
7.0160,1.5055,-0.9242,4.9529,5.258
7.0380,1.7114,-1.2652,4.2960,4.794
7.0390,1.9726,-1.4395,3.8271,4.540
7.0470,2.1657,-1.5995,3.0398,4.061
7.0860,1.9072,-1.6502,2.7510,3.732
7.0880,1.3524,-1.7097,2.4861,3.306
7.0900,0.6373,-1.6752,2.1093,2.768
7.0910,-0.0894,-1.5851,1.6718,2.306
7.0960,-0.6249,-1.4967,1.3175,2.090
7.1080,-0.9523,-1.4797,1.2350,2.150
7.1160,-1.3203,-1.5468,1.0310,2.280
7.1370,-1.8112,-1.7046,0.7651,2.602
7.1390,-2.2571,-1.8482,0.2964,2.932
7.1460,-2.6167,-1.9472,-0.4020,3.286
7.2140,-2.8037,-2.0014,-1.2931,3.679
7.2200,-2.8853,-2.0499,-2.0495,4.090
7.2210,-2.8224,-2.1971,-2.7339,4.502
7.2230,-2.6954,-2.3689,-3.4087,4.949
7.2260,-2.5469,-2.4840,-3.9536,5.319
7.2280,-2.3993,-2.5021,-4.4536,5.644
7.2310,-2.2989,-2.5590,-4.9600,6.036
7.2330,-2.2285,-2.6104,-5.3726,6.375
7.2380,-2.2301,-2.6324,-5.6895,6.654
7.2510,-2.1969,-2.6480,-5.9320,6.858
7.2560,-2.1957,-2.6333,-6.0229,6.930
7.2940,-2.1276,-2.5472,-5.9908,6.849
7.2970,-1.9898,-2.4142,-5.7665,6.561
7.3000,-1.7431,-2.2630,-5.2214,5.952
7.3020,-1.4923,-2.1828,-4.4928,5.213
7.3060,-1.3203,-2.1804,-3.8336,4.604
7.3950,-1.1235,-2.1758,-3.4189,4.205
7.3970,-0.9381,-2.1233,-3.2081,3.960
7.3990,-0.7575,-2.0618,-2.8352,3.587
7.4010,-0.5915,-1.9611,-2.4613,3.202
7.4030,-0.5120,-1.8845,-2.0094,2.802
7.4070,-0.5841,-1.8832,-1.4364,2.439
7.4080,-0.6821,-1.8900,-0.7680,2.151
7.4090,-0.6830,-1.8870,-0.0340,2.007
7.4110,-0.6786,-1.6773,0.8106,1.983
7.4120,-0.8264,-1.4016,1.5452,2.244
7.4150,-1.0345,-1.3278,1.8325,2.488
7.4260,-1.0081,-1.3639,1.9107,2.555
7.4340,-0.7359,-1.3760,1.8763,2.440
7.4590,-0.4720,-1.4376,1.6345,2.227
7.4610,-0.5282,-1.5777,1.2682,2.092
7.4660,-1.0002,-1.8780,1.1196,2.404
7.5040,-1.7513,-2.1795,1.2215,3.051
7.5070,-2.2565,-2.2277,1.4435,3.484
7.5080,-2.5200,-1.9617,2.1597,3.855
7.5100,-2.4444,-1.5713,3.0755,4.231
7.5130,-2.1209,-1.4012,3.9343,4.684
7.5250,-1.3933,-1.3287,4.8423,5.211
7.5350,-0.5538,-1.2770,5.4021,5.579
7.5560,0.2087,-1.2822,5.5910,5.740
7.5580,0.7204,-1.4209,5.2342,5.471
7.5640,0.9208,-1.4056,4.4881,4.792
7.6190,0.8965,-1.1950,3.7825,4.067
7.6210,0.6423,-0.8936,2.5385,2.767
7.6220,0.1406,-0.5511,1.9511,2.032
7.6230,-0.5030,-0.3539,1.8045,1.906
7.6240,-1.1213,-0.0959,1.4755,1.856
7.6250,-1.5879,0.3153,1.0526,1.931
7.6330,-2.0051,0.6726,0.5841,2.194
7.6430,-2.3915,0.8250,0.1768,2.536
7.6770,-2.7649,0.7343,-0.2950,2.876
7.6790,-2.8173,0.5266,-0.7968,2.975
7.6810,-2.5653,0.2777,-1.3158,2.896
7.6830,-1.7291,-0.0174,-1.9734,2.624
7.7330,-1.0739,-0.1652,-2.3541,2.593
7.7350,-0.5796,-0.3705,-2.7765,2.860
7.7360,-0.3328,-0.5872,-3.1790,3.250
7.7380,-0.1351,-0.6934,-3.5104,3.581
7.7390,-0.0586,-0.7110,-3.8395,3.905
7.7440,-0.1187,-0.7125,-4.0818,4.145
7.7540,-0.2809,-0.6663,-4.2146,4.276
7.7630,-0.5167,-0.6135,-4.2785,4.353
7.7860,-0.6542,-0.5490,-4.3031,4.387
7.7870,-0.7273,-0.4541,-4.2896,4.374
7.7920,-0.8138,-0.3944,-4.2675,4.362
7.8790,-0.8364,-0.3912,-4.3406,4.438
7.8800,-0.8259,-0.3635,-4.4103,4.502
7.8810,-0.7274,-0.3477,-4.4661,4.538
7.8830,-0.5886,-0.3291,-4.3719,4.424
7.8850,-0.3984,-0.2841,-4.1583,4.187
7.8860,-0.1931,-0.2689,-3.9487,3.963
7.8880,0.1138,-0.2505,-3.6342,3.645
7.8890,0.4903,-0.0981,-3.0335,3.074
7.8900,0.8410,0.0976,-2.3292,2.478
7.8920,0.9262,0.3491,-1.5238,1.817
7.9190,0.9174,0.4612,-0.6687,1.225
7.9200,1.0627,0.3582,0.1773,1.135
7.9210,1.4865,0.1182,0.9058,1.745
7.9320,2.4000,-0.0098,1.5308,2.847
7.9590,3.6571,0.1157,2.1740,4.256
7.9600,4.7844,0.3904,2.6022,5.460
7.9610,5.3537,0.6345,2.3614,5.886
7.9830,5.2802,0.7941,1.9055,5.669
7.9850,4.8867,0.8953,1.8395,5.298
7.9920,4.2793,1.0575,2.0044,4.842
8.0310,3.5998,1.1898,2.2948,4.432
8.0330,2.7093,1.3618,2.5063,3.934
8.0340,2.1199,1.6409,2.6539,3.772
8.0350,1.6686,1.9286,3.2614,4.140
8.0410,1.1161,2.0970,4.0923,4.732
8.0520,0.3466,2.0365,5.1279,5.528
8.0620,-0.6155,1.7538,6.3390,6.606
8.0870,-1.3692,1.3201,7.4826,7.721
8.0890,-1.6766,0.8883,7.9356,8.159
8.0900,-1.4862,0.4689,7.7633,7.918
8.1280,-1.0916,0.2502,7.3449,7.430
8.1300,-0.7215,0.1744,6.5284,6.570
8.1310,-0.6628,-0.0429,5.5458,5.585
8.1340,-0.8963,-0.3939,4.5362,4.641
8.1410,-1.3090,-0.7896,3.5183,3.836
8.1720,-1.7767,-1.0769,2.3773,3.157
8.1730,-2.0493,-1.3212,1.3121,2.769
8.1740,-2.2529,-1.5146,0.1967,2.722
8.1950,-2.3752,-1.7480,-0.7259,3.037
8.1980,-2.3518,-1.9907,-1.4725,3.415
8.2120,-2.3184,-2.2618,-1.9320,3.771
8.2140,-2.2398,-2.5359,-2.3005,4.091
8.2200,-2.3014,-2.7955,-2.6468,4.485
8.2300,-2.4180,-3.1444,-3.1198,5.046
8.2400,-2.5177,-3.3908,-3.6431,5.578
8.2730,-2.4856,-3.5644,-4.2585,6.084
8.2740,-2.4087,-3.6405,-4.7632,6.461
8.2760,-2.2540,-3.6655,-5.2387,6.779
8.2800,-2.0799,-3.6214,-5.6143,6.997
8.3130,-1.9062,-3.5448,-5.8833,7.128
8.3150,-1.8154,-3.3764,-5.9504,7.078
8.3170,-1.3900,-3.3413,-5.8207,6.854
8.3210,-1.1567,-3.1818,-5.5493,6.501
8.3300,-1.1468,-3.0527,-5.3980,6.307
8.3520,-1.1487,-3.0267,-4.8543,5.835
8.3540,-1.2021,-3.0385,-4.5822,5.628
8.3600,-1.1229,-2.9919,-4.3494,5.397
8.4110,-0.8664,-2.8056,-4.0847,5.031
8.4130,-0.5904,-2.6250,-3.8513,4.698
8.4140,-0.3853,-2.5229,-3.6534,4.457
8.4150,-0.1887,-2.4512,-3.4785,4.260
8.4170,0.0988,-2.3304,-3.1519,3.921
8.4190,0.4030,-2.1747,-2.6226,3.431
8.4290,0.7335,-1.9950,-1.9496,2.884
8.4550,0.8815,-1.7566,-1.0840,2.244
8.4560,0.8082,-1.5399,-0.1297,1.744
8.4630,0.7302,-1.4430,0.7243,1.772
8.5060,0.6986,-1.3822,1.5199,2.170
8.5090,0.9734,-1.1735,2.1858,2.665
8.5100,1.2935,-0.8522,2.8363,3.232
8.5120,1.4577,-0.5183,3.2490,3.599
8.5130,1.1755,-0.2537,3.2670,3.481
8.5230,0.4404,-0.2091,3.1398,3.177
8.5280,-0.4804,-0.3246,2.8801,2.938
8.5380,-1.3634,-0.4726,2.4971,2.884
8.5790,-2.1080,-0.5718,2.3399,3.201
8.5850,-2.6820,-0.5907,2.5434,3.743
8.5860,-2.9677,-0.6299,2.9261,4.215
8.5880,-2.8524,-0.7945,3.3477,4.469
8.5890,-2.4906,-1.0820,3.6337,4.536
8.6200,-1.6567,-1.3791,3.8507,4.413
8.6210,-0.7550,-1.6946,4.2270,4.616
8.6230,-0.0863,-2.0271,4.4589,4.899
8.6280,0.4808,-2.2688,4.4948,5.058
8.6380,0.9210,-2.2576,4.4621,5.085
8.6780,1.0643,-2.1521,3.9877,4.655
8.6790,0.8904,-1.9367,3.4791,4.080
8.6800,0.4310,-1.8363,2.6086,3.219
8.6810,-0.3788,-1.7189,1.8264,2.537
8.6990,-1.1526,-1.6802,1.4151,2.481
8.7000,-1.8402,-1.6537,0.8118,2.604
8.7080,-2.1969,-1.5121,-0.0778,2.668
8.7180,-2.5232,-1.3165,-0.9598,3.003
8.7280,-2.6503,-1.2976,-1.7279,3.420
8.7650,-2.5917,-1.4361,-2.3382,3.774
8.7660,-2.3036,-1.5299,-2.9178,4.020
8.7680,-1.8717,-1.6126,-3.2602,4.091
8.7690,-1.3173,-1.7585,-3.2813,3.949
8.7770,-0.7388,-1.8608,-3.3592,3.911
8.8170,-0.2457,-1.8844,-3.3950,3.891
8.8180,0.1066,-1.8937,-3.3579,3.857
8.8200,0.3728,-1.8665,-3.2895,3.800
8.8220,0.6250,-1.7679,-3.1959,3.705
8.8270,0.8694,-1.5596,-3.0743,3.555
8.8370,1.0165,-1.3905,-2.8335,3.316
8.8720,1.0706,-1.2639,-2.6781,3.149
8.8740,1.0846,-1.0865,-2.6695,3.079
8.8760,1.1841,-0.8247,-2.6659,3.031
8.8770,1.3093,-0.6074,-2.6212,2.992
8.9130,1.3739,-0.4325,-2.5753,2.951
8.9160,1.4474,-0.2892,-2.4963,2.900
8.9170,1.4163,-0.1642,-2.4033,2.794
8.9180,1.4206,0.0102,-2.3897,2.780
8.9270,1.4650,0.2130,-2.4912,2.898
8.9360,1.5981,0.4954,-2.6152,3.105
8.9620,1.6126,0.6543,-2.6080,3.135
8.9640,1.6346,0.8077,-2.5028,3.096
8.9660,1.6404,1.0029,-2.3192,3.013
8.9780,1.6674,1.1562,-2.1034,2.923
9.0290,1.8448,1.2629,-1.8245,2.886
9.0320,2.1481,1.3674,-1.2732,2.847
9.0330,2.3506,1.4334,-0.5898,2.816
9.0350,2.4268,1.4451,-0.0962,2.826
9.0360,2.4366,1.3850,0.3851,2.829
9.0370,2.1477,1.3218,0.6711,2.610
9.0470,1.7494,1.1334,0.8714,2.259
9.0550,1.2287,0.8952,1.2764,1.985
9.0880,0.8377,0.7270,2.1987,2.463
9.0890,0.6099,0.8575,2.6251,2.828
9.0910,0.3152,1.1318,2.6950,2.940
9.1270,-0.0056,1.3603,2.6030,2.937
9.1290,-0.4256,1.4620,2.3825,2.828
9.1310,-0.8199,1.4728,1.9405,2.570
9.1320,-1.0060,1.3260,1.6130,2.318
9.1350,-0.9674,1.2295,1.4883,2.159
9.1450,-0.8153,1.1928,1.3655,1.988
9.1560,-0.5680,1.2867,1.7513,2.246
9.1880,-0.2198,1.3874,2.4301,2.807
9.1890,0.2019,1.3706,3.1835,3.472
9.1900,0.5883,1.3596,3.8330,4.109
9.2520,1.0033,1.1676,4.3118,4.578
9.2530,1.2101,0.7298,4.5357,4.751
9.2550,1.3260,0.2828,4.2917,4.501
9.2560,1.7039,0.0286,3.7959,4.161
9.2570,2.0062,-0.1064,3.2424,3.814
9.2590,2.1018,-0.2234,2.7692,3.484
9.2600,1.9033,-0.3278,2.4681,3.134
9.2680,1.4006,-0.3795,2.1893,2.627
9.2750,0.7280,-0.4547,1.9712,2.150
9.2960,-0.0296,-0.6003,1.6758,1.780
9.2970,-0.7731,-0.8298,1.3620,1.772
9.3050,-1.3618,-1.0463,0.9775,1.976
9.3330,-1.6959,-1.1351,0.5234,2.107
9.3360,-1.7808,-1.1903,0.1199,2.145
9.3370,-1.7330,-1.2742,-0.3229,2.175
9.3460,-1.6364,-1.4131,-0.8344,2.318
9.3540,-1.3772,-1.5963,-1.2887,2.471
9.3980,-1.0946,-1.7629,-1.7090,2.688
9.4000,-0.7986,-1.9088,-2.1102,2.955
9.4020,-0.5301,-2.0588,-2.4593,3.251
9.4040,-0.3197,-2.1648,-2.6973,3.473
9.4060,-0.1354,-2.2818,-2.9035,3.695
9.4430,0.0256,-2.3588,-3.0800,3.880
9.4450,0.2224,-2.4281,-3.1068,3.949
9.4460,0.4178,-2.4639,-3.1585,4.028
9.4480,0.5215,-2.5218,-3.1951,4.104
9.4540,0.6036,-2.5666,-3.2582,4.191
9.4640,0.6738,-2.5739,-3.2757,4.220
9.4730,0.7680,-2.5425,-3.4021,4.316
9.4970,0.7944,-2.4240,-3.5141,4.342
9.4990,0.6725,-2.3782,-3.5880,4.357
9.5030,0.4715,-2.2992,-3.6632,4.351
9.5390,0.2728,-2.2230,-3.7602,4.377
9.5410,0.0501,-2.1618,-3.8031,4.375
9.5430,-0.1762,-2.0700,-3.7296,4.269
9.5440,-0.4684,-1.9453,-3.3121,3.870
9.5530,-0.8919,-1.7222,-2.6763,3.305
9.5860,-1.3144,-1.4861,-1.7607,2.653
9.5890,-1.8400,-1.3106,-0.6956,2.364
9.5900,-2.2512,-1.2784,0.4781,2.633
9.6280,-2.2439,-1.1978,1.0356,2.746
9.6300,-1.8268,-1.0462,1.1853,2.416
9.6310,-1.3788,-0.9201,1.1492,2.017
9.6320,-1.0512,-0.8752,1.0275,1.711
9.6330,-0.9610,-0.7537,0.6809,1.398
9.6450,-1.0701,-0.5473,0.1590,1.212
9.6520,-1.2317,-0.3413,-0.1250,1.284
9.6810,-1.3926,-0.1450,-0.1242,1.406
9.6820,-1.6377,-0.0762,0.2165,1.654
9.6840,-2.0234,-0.2391,0.5426,2.109
9.7640,-2.5170,-0.5046,0.6623,2.651
9.7660,-3.1323,-0.7074,0.9109,3.338
9.7680,-3.5345,-0.7659,0.9790,3.747
9.7700,-3.3788,-0.6306,1.1837,3.635
9.7720,-2.5911,-0.4021,1.6296,3.087
9.7740,-1.3154,-0.1587,1.9961,2.396
9.7760,0.1092,0.0236,2.7397,2.742
9.7780,1.2628,-0.0197,3.8246,4.028
9.7800,2.0430,-0.4607,4.5712,5.028
9.7820,2.4156,-0.9122,4.6051,5.280
9.8180,2.7469,-1.1479,4.1866,5.137
9.8200,2.8434,-1.2728,3.6190,4.775
9.8220,2.6447,-1.3157,2.9360,4.165
9.8260,2.2205,-1.2905,2.2717,3.429
9.9450,1.6098,-1.1245,1.6920,2.592
9.9490,1.0098,-0.9130,0.9827,1.679
9.9510,0.4367,-0.8072,0.2843,0.961
9.9540,-0.1512,-0.7840,-0.4111,0.898
9.9570,-0.5358,-0.7315,-1.0788,1.409
9.9600,-0.8551,-0.7590,-1.6863,2.037
9.9620,-0.9985,-0.7746,-2.2220,2.556
9.9660,-0.9799,-0.8382,-2.7659,3.052
9.9680,-0.7498,-0.8242,-3.2332,3.420
9.9710,-0.3625,-0.7637,-3.6561,3.753
9.9740,0.0371,-0.6651,-4.0490,4.103
9.9770,0.3460,-0.6104,-4.3174,4.374
9.9800,0.5271,-0.5864,-4.3951,4.465
9.9820,0.6292,-0.5356,-4.3919,4.469
9.9840,0.4883,-0.3398,-4.2391,4.281
9.9870,0.4734,-0.2734,-4.1870,4.223
9.9940,0.2609,-0.0933,-4.1245,4.134
10.0070,-0.0499,0.1429,-3.9653,3.968
10.0120,-0.5279,0.3908,-3.5042,3.565
10.0460,-0.9770,0.6460,-2.8884,3.117
10.0490,-1.2284,0.9482,-2.3846,2.845
10.0510,-1.1220,1.2441,-1.9776,2.592
10.0530,-0.7871,1.3983,-1.5340,2.220
10.1500,-0.3775,1.4641,-1.1773,1.916
10.1510,-0.0037,1.5390,-0.7349,1.705
10.1520,0.3070,1.6575,-0.1492,1.692
10.1530,0.4519,1.7364,0.4993,1.862
10.1540,0.4975,1.7680,1.0624,2.122
10.1560,0.6344,1.8359,1.4432,2.420
10.1580,0.9663,1.9998,1.6272,2.753
10.1600,1.1996,2.0763,1.7895,2.992
10.1610,1.3689,2.0295,1.8236,3.053
10.1620,1.4394,1.9123,1.8161,3.005
10.1630,1.4481,1.7625,1.7793,2.893
10.1830,1.4319,1.6169,1.5098,2.635
10.1840,1.4036,1.5090,1.1848,2.377
10.1890,1.2467,1.5282,0.5705,2.053
10.2330,1.0073,1.6162,0.1297,1.909
10.2340,0.9166,1.6765,-0.1896,1.920
10.2350,0.8427,1.6154,-0.4597,1.879
10.2360,0.6682,1.3983,-0.4941,1.627
10.2790,0.3197,1.0288,-0.2073,1.097
10.2800,-0.1186,0.5453,0.3860,0.679
10.2810,-0.4476,-0.0435,1.1267,1.213
10.2820,-0.5090,-0.5401,1.9438,2.081
10.2830,-0.0950,-0.7554,2.7092,2.814
10.2920,0.8625,-0.8944,3.2776,3.505
10.3080,1.8337,-1.2480,3.7693,4.374
10.3100,2.7301,-1.6793,4.1484,5.242
10.3350,3.2487,-2.1745,4.0366,5.619
10.3370,3.5008,-2.5584,3.5517,5.605
10.3380,3.6013,-2.7996,2.8215,5.364
10.3480,3.5084,-2.8693,2.0383,4.969
10.3990,3.2268,-2.8401,1.2687,4.482
10.4010,2.6281,-2.6710,0.5933,3.794
10.4020,1.8501,-2.4763,0.1696,3.096
10.4030,1.0479,-2.4126,-0.1230,2.633
10.4050,0.3186,-2.3710,-0.2603,2.406
10.4080,-0.3016,-2.3222,-0.3067,2.362
10.4190,-0.7233,-2.3371,-0.3939,2.478
10.4500,-0.9943,-2.3147,-0.6473,2.601
10.4520,-1.1052,-2.2369,-1.0362,2.702
10.4540,-1.0824,-2.2437,-1.5773,2.948
10.4590,-1.0242,-2.2736,-2.2404,3.352
10.5190,-0.9387,-2.3282,-2.7938,3.756
10.5210,-0.8312,-2.2889,-3.4246,4.202
10.5220,-0.7442,-2.1419,-3.9368,4.543
10.5240,-0.7209,-1.9743,-4.1798,4.678
10.5260,-0.7334,-1.8074,-4.2207,4.650
10.5270,-0.7314,-1.6142,-4.1457,4.509
10.5290,-0.7712,-1.4397,-3.9285,4.255
10.5550,-0.7940,-1.2603,-3.6379,3.931
10.5580,-0.7305,-1.0253,-3.4151,3.640
10.5590,-0.5519,-0.7765,-3.2139,3.352
10.5670,-0.4023,-0.4983,-2.9427,3.012
10.6130,-0.3018,-0.2893,-2.7190,2.751
10.6150,-0.2486,-0.2022,-2.5514,2.571
10.6170,-0.2370,-0.1117,-2.5843,2.598
10.6180,-0.2144,-0.0314,-2.5420,2.551
10.6190,-0.1790,0.0531,-2.3922,2.400
10.6410,-0.2470,0.1043,-1.9992,2.017
10.6420,-0.3676,0.0562,-1.5747,1.618
10.6470,-0.3726,-0.0618,-1.3559,1.407
10.6930,-0.1383,-0.0409,-1.0448,1.055
10.6940,0.1804,-0.0119,-0.7282,0.750
10.6960,0.4243,-0.0498,-0.4712,0.636
10.6970,0.5225,-0.1075,-0.2357,0.583
10.6990,0.5152,-0.1658,-0.1823,0.571
10.7070,0.4500,-0.2290,-0.2612,0.568
10.7160,0.2206,-0.2926,-0.3914,0.536
10.7390,-0.0918,-0.3932,-0.5303,0.666
10.7410,-0.3618,-0.4786,-0.5261,0.798
10.7460,-0.5483,-0.4912,-0.4729,0.875
10.8010,-0.7010,-0.4673,-0.3016,0.895
10.8030,-0.8167,-0.4992,-0.0501,0.959
10.8040,-0.9061,-0.5776,0.0844,1.078
10.8060,-0.9184,-0.5889,0.0997,1.096
10.8080,-0.8928,-0.4432,-0.0490,0.998
10.8100,-1.0528,-0.2518,-0.0852,1.086
10.8170,-1.2740,-0.3100,-0.0521,1.312
10.8410,-2.5871,-0.6908,0.0734,2.679
10.8430,-3.4049,-0.7842,0.4111,3.518
10.8460,-3.6889,-0.7654,0.9196,3.878
10.9240,-3.6396,-0.9511,1.4339,4.026
10.9260,-3.0913,-1.3380,1.6282,3.741
10.9280,-2.1157,-1.5870,1.6580,3.121
10.9290,-0.9403,-1.7806,2.0891,2.902
10.9300,0.3439,-2.0556,2.6048,3.336
10.9310,1.5509,-2.2510,3.0994,4.133
10.9330,2.4371,-2.2831,3.2388,4.652
10.9340,2.8906,-2.1212,3.5827,5.069
10.9360,2.8994,-1.7575,2.4373,4.176
10.9460,2.2679,-1.2490,2.3857,3.521
10.9770,1.3211,-0.9616,2.4351,2.932
10.9780,0.1998,-0.7087,2.3128,2.427
10.9790,-0.6871,-0.4245,1.7220,1.902
10.9860,-1.4448,-0.2466,1.2205,1.907
11.1240,-1.8979,-0.1054,0.8264,2.073
11.1270,-1.7438,0.1659,0.3812,1.793
11.1290,-1.4279,0.3853,-0.8026,1.683
11.1320,-1.2755,0.3982,-2.1890,2.565
11.1340,-1.2794,0.2423,-3.0977,3.360
11.1370,-1.2131,0.0649,-3.6772,3.873
11.1400,-1.0526,0.0023,-4.0790,4.213
11.1420,-0.7716,0.0700,-4.4849,4.551
11.1460,-0.4859,0.2026,-4.9656,4.993
11.1480,-0.3258,0.3203,-5.2650,5.285
11.1500,-0.3128,0.3861,-5.5173,5.540
11.1530,-0.3013,0.4300,-5.6062,5.631
11.1560,-0.3218,0.5137,-5.2831,5.318
11.1580,-0.3851,0.5100,-4.7139,4.757
11.1590,-0.4034,0.5133,-4.2599,4.310
11.1610,-0.3011,0.6175,-3.8727,3.933
11.1620,-0.0887,0.7891,-3.3979,3.489
11.1640,0.0457,0.9360,-2.9093,3.057
11.1870,0.1655,0.9683,-2.4360,2.627
11.1890,0.3164,0.9987,-2.0432,2.296
11.1940,0.5563,1.0515,-1.7220,2.093
11.2510,0.8281,1.0958,-1.5380,2.062
11.2520,1.0698,1.1053,-1.4710,2.128
11.2530,1.2506,1.1169,-1.4289,2.203
11.2540,1.4681,1.1280,-1.2516,2.235
11.2540,1.6930,1.1348,-1.1659,2.348
11.2560,1.8282,1.0768,-1.1090,2.394
11.2660,1.9539,1.0301,-1.0276,2.436
11.3100,2.1934,1.0076,-0.8441,2.557
11.3110,2.4538,0.9057,-0.4594,2.656
11.3130,2.7431,0.7672,0.1793,2.854
11.3140,2.7769,0.5897,1.0893,3.041
11.3150,2.6954,0.3127,2.1325,3.451
11.3640,2.8493,0.2170,3.1231,4.233
11.3660,3.3318,0.5748,4.1685,5.367
11.3680,3.5972,1.0245,5.5402,6.685
11.3690,3.3872,0.9947,6.9089,7.759
11.3700,2.4923,0.3965,7.7626,8.162
11.3720,1.4896,-0.4580,8.4170,8.560
11.4020,0.9837,-1.1451,8.5242,8.657
11.4040,1.1119,-1.3181,8.4121,8.587
11.4060,1.5717,-1.1862,8.0910,8.327
11.4130,2.2791,-1.1437,7.5500,7.969
11.4350,2.7891,-1.2952,6.9865,7.633
11.4460,3.1967,-1.6355,6.2219,7.184
11.4470,3.3266,-1.9690,4.7673,6.138
11.4560,3.2670,-2.0752,3.7111,5.362
11.4800,2.8837,-2.2449,2.6466,4.512
11.4820,2.2060,-2.4368,1.6462,3.676
11.4840,1.3239,-2.5746,0.8182,3.008
11.4920,0.4643,-2.5732,0.0716,2.616
11.5170,-0.3467,-2.7024,-0.6760,2.807
11.5180,-1.0637,-2.7134,-1.5107,3.283
11.5230,-1.5844,-2.6899,-2.2491,3.848
11.5320,-1.9429,-2.6375,-3.0103,4.449
11.5820,-2.1375,-2.6045,-3.7046,5.008
11.5840,-2.2326,-2.5971,-4.3035,5.500
11.5880,-2.2709,-2.6866,-4.7951,5.947
11.5920,-2.2776,-2.7888,-5.3003,6.408
11.5940,-2.2370,-2.8479,-5.8240,6.858
11.5960,-2.1374,-2.9103,-6.2596,7.226
11.6050,-2.0387,-2.9680,-6.6457,7.558
11.6130,-1.8746,-2.9904,-6.9598,7.804
11.6370,-1.7135,-2.9059,-7.0406,7.807
11.6390,-1.5275,-2.7877,-6.9614,7.653
11.6420,-1.3268,-2.6849,-6.7024,7.341
11.7050,-1.1921,-2.5418,-6.2175,6.822
11.7080,-1.1349,-2.4799,-5.8396,6.445
11.7120,-1.1520,-2.5171,-5.6198,6.265
11.7130,-1.2112,-2.4666,-5.3335,6.000
11.7160,-1.1493,-2.3931,-4.9379,5.606
11.7180,-1.1649,-2.3982,-4.6373,5.349
11.7200,-1.1189,-2.4819,-4.2269,5.028
11.7210,-1.0219,-2.4242,-3.7166,4.553
11.7320,-0.8249,-2.4416,-2.9604,3.925
11.7600,-0.6145,-2.4566,-2.0615,3.265
11.7610,-0.5145,-2.4112,-1.0158,2.667
11.7630,-0.4871,-2.4420,0.1762,2.496
11.8100,-0.5218,-2.5740,1.4293,2.990
11.8120,-0.4418,-2.4741,2.5454,3.577
11.8140,-0.1640,-2.1882,3.3416,3.998
11.8150,-0.0120,-1.9692,3.7977,4.278
11.8160,-0.0198,-1.9507,3.7873,4.260
11.8350,-0.2242,-1.9556,3.1455,3.711
11.8370,-0.8023,-2.0095,2.2610,3.130
11.8400,-1.5233,-2.1262,1.4950,3.013
11.8800,-2.2036,-2.1201,0.9000,3.188
11.8830,-2.7198,-1.9122,0.7631,3.411
11.8850,-3.0045,-1.6158,1.0522,3.570
11.8860,-2.9534,-1.3731,1.5688,3.615
11.8930,-2.5733,-1.1784,2.1737,3.569
11.9170,-1.7863,-1.0010,2.8949,3.546
11.9190,-0.9901,-0.8798,3.3345,3.588
11.9210,-0.2833,-0.9657,3.5161,3.657
11.9300,0.1990,-1.0356,3.5636,3.716
11.9680,0.5396,-0.8926,3.4711,3.624
11.9690,0.7658,-0.6591,3.2236,3.378
11.9710,0.7998,-0.3976,2.8767,3.012
11.9720,0.5425,-0.1081,2.5663,2.625
11.9800,-0.0612,0.1756,2.1984,2.206
11.9890,-0.8532,0.4039,1.7709,2.007
12.0210,-1.5750,0.5568,1.4685,2.224
12.0220,-2.2195,0.6168,1.0120,2.516
12.0240,-2.6419,0.6563,0.4616,2.761
12.0300,-2.8148,0.7206,-0.1623,2.910
12.0660,-2.6574,0.8056,-0.8520,2.905
12.0700,-2.2250,0.9150,-1.6264,2.904
12.0710,-1.4095,1.0251,-2.6857,3.202
12.0730,-1.1802,0.9579,-3.0049,3.367
12.0790,-0.6394,0.8491,-3.7879,3.934
12.0890,-0.3898,0.7901,-4.1407,4.233
12.1200,-0.2367,0.7797,-4.3863,4.461
12.1220,-0.1394,0.8144,-4.5956,4.669
12.1240,-0.1061,0.8574,-4.6490,4.729
12.1290,-0.1221,0.9215,-4.5490,4.643
12.2160,-0.0849,1.0350,-4.4059,4.527
12.2180,-0.0264,1.1559,-4.2217,4.377
12.2200,0.1504,1.2800,-3.9597,4.164
12.2220,0.3219,1.3755,-3.7176,3.977
12.2240,0.4345,1.4090,-3.6060,3.896
12.2260,0.5533,1.4591,-3.5731,3.899
12.2280,0.6791,1.4643,-3.6154,3.959
12.2300,0.8352,1.4639,-3.6438,4.015
12.2320,0.9928,1.4529,-3.4274,3.853
12.2340,1.2227,1.4581,-3.0357,3.583
12.2440,1.3989,1.3713,-2.6046,3.259
12.2860,1.5166,1.1733,-2.1383,2.872
12.2880,1.8088,1.1001,-1.5606,2.630
12.2910,2.3334,1.1789,-0.7350,2.716
12.2930,2.8366,1.2716,0.4970,3.148
12.2970,3.1391,1.2409,2.1253,3.989
12.3010,3.4801,0.9441,3.2884,4.880
12.3860,3.6913,0.7103,3.5829,5.193
12.3880,3.6879,0.5807,3.7045,5.259
12.3890,3.4776,0.3778,3.3083,4.815
12.3900,2.9501,0.1886,3.1285,4.304
12.3920,2.0905,-0.1386,3.5405,4.114
12.3930,1.2281,-0.4911,4.2034,4.407
12.3950,0.8760,-0.3639,4.0875,4.196
12.3970,1.0647,0.3159,3.9010,4.056
12.3980,1.3899,0.7129,4.6947,4.948
12.3990,1.5685,0.2184,5.5596,5.781
12.4220,1.5474,-0.6129,6.1023,6.325
12.4230,1.5575,-1.2372,6.1524,6.466
12.4270,1.7616,-1.5995,5.8387,6.305
12.4670,2.0723,-1.8290,5.1921,5.882
12.4680,2.3216,-2.0062,4.5745,5.508
12.4700,2.3358,-2.0831,4.0251,5.099
12.4710,2.0514,-2.1554,3.4912,4.587
12.4790,1.5784,-2.1804,2.9611,4.002
12.5110,0.9806,-2.0820,2.3740,3.306
12.5130,0.3968,-1.9615,1.7270,2.643
12.5140,-0.0795,-1.8556,1.0504,2.134
12.5320,-0.4336,-1.6895,0.4312,1.797
12.5330,-0.6994,-1.5427,-0.0874,1.696
12.5390,-0.9599,-1.5062,-0.5556,1.870
12.6020,-1.1890,-1.5280,-1.0615,2.208
12.6040,-1.4267,-1.5634,-1.5695,2.635
12.6060,-1.6031,-1.6614,-2.0459,3.085
12.6080,-1.7080,-1.7601,-2.5965,3.572
12.6090,-1.7334,-1.7622,-3.1502,4.004
12.6110,-1.6819,-1.7429,-3.5580,4.304
12.6120,-1.6130,-1.7711,-3.8771,4.557
12.6200,-1.5573,-1.8578,-4.2972,4.934
12.6260,-1.5245,-1.9117,-4.6011,5.210
12.6470,-1.6215,-1.9446,-4.6925,5.332
12.6500,-1.8446,-2.1228,-4.7921,5.556
12.6560,-1.9623,-2.2660,-5.0114,5.839
12.7000,-2.0154,-2.2986,-5.0745,5.924
12.7020,-2.0089,-2.2460,-4.9461,5.792
12.7040,-1.9389,-2.2086,-4.7645,5.598
12.7050,-1.8621,-2.1285,-4.5474,5.355
12.7070,-1.5997,-1.9941,-4.1018,4.833
12.7170,-1.3582,-1.9650,-3.8388,4.521
12.7250,-1.1658,-2.0038,-3.5958,4.278
12.7470,-1.0661,-2.0942,-3.3631,4.103
12.7480,-1.0879,-2.1828,-3.0575,3.911
12.7570,-1.1182,-2.1655,-2.6487,3.599
12.8580,-1.1239,-2.1288,-2.1779,3.246
12.8670,-1.1157,-2.0050,-1.5393,2.763
12.8680,-1.2006,-1.9411,-0.8667,2.441
12.8700,-1.2972,-1.8657,-0.2754,2.289
12.8710,-1.1606,-1.7013,0.2008,2.069
12.8740,-0.9411,-1.4615,0.4430,1.794
12.8760,-1.0728,-1.4443,0.4297,1.850
12.8780,-1.5926,-1.7149,0.0976,2.342
12.8800,-2.1428,-1.8917,-0.2533,2.870
12.8820,-2.3306,-1.7236,-0.5705,2.954
12.8840,-2.3217,-1.4717,0.5629,2.806
12.8850,-1.9362,-1.2275,1.2125,2.593
12.8870,-1.3235,-0.8490,1.7414,2.346
12.8950,-0.5705,-0.4956,2.5938,2.702
12.9050,0.1089,-0.2297,3.7011,3.710
12.9500,0.7206,-0.1251,4.9373,4.991
12.9520,1.3968,-0.1209,5.1431,5.331
12.9540,1.8581,-0.1507,4.9674,5.306
12.9570,2.0748,-0.2545,4.6406,5.090
12.9600,2.1019,-0.4333,4.0086,4.547
13.0230,2.0197,-0.4474,3.4383,4.013
13.0270,1.7891,-0.2835,3.0242,3.525
13.0290,1.3566,0.0682,2.5746,2.911
13.0310,0.7955,0.3178,1.9611,2.140
13.0330,0.2427,0.4693,1.2506,1.358
13.0340,-0.3344,0.5875,0.3630,0.767
13.0350,-0.8775,0.6034,-0.4794,1.168
13.0370,-1.2374,0.5627,-1.2485,1.846
13.0460,-1.3695,0.6219,-1.8328,2.371
13.0550,-1.2133,0.6876,-2.3218,2.708
13.0880,-0.8143,0.6791,-2.6033,2.811
13.0900,-0.2556,0.6593,-2.6548,2.747
13.0910,0.2503,0.6208,-2.7359,2.817
13.0940,0.6179,0.5789,-2.9535,3.073
13.1040,0.8611,0.4963,-3.2925,3.439
13.1550,0.9602,0.3762,-3.5535,3.700
13.1570,0.9684,0.2666,-3.7410,3.874
13.1600,0.9219,0.2315,-3.7976,3.915
13.1620,0.8859,0.2779,-3.8695,3.979
13.1630,0.8835,0.4005,-3.8466,3.967
13.1640,0.8377,0.5490,-3.7932,3.923
13.1880,0.7879,0.7094,-3.5788,3.733
13.1890,0.7485,0.9504,-3.3603,3.571
13.1930,0.6273,1.1213,-3.1744,3.425
13.2030,0.4249,1.1336,-3.0714,3.301
13.2870,0.2426,1.1211,-2.9648,3.179
13.2890,0.1537,1.1152,-2.8584,3.072
13.2920,0.2291,1.1472,-2.7892,3.025
13.2940,0.3808,1.2057,-2.6272,2.916
13.2960,0.5817,1.2684,-2.4857,2.851
13.2970,0.8428,1.2830,-2.3605,2.816
13.2990,1.0248,1.3055,-2.1997,2.756
13.3010,1.1915,1.2469,-1.8662,2.541
13.3020,1.2017,1.1059,-1.4451,2.181
13.3040,1.1893,0.9607,-1.0396,1.849
13.3380,1.1184,0.8269,-0.2663,1.416
13.3420,1.1483,0.8356,-0.0287,1.420
13.3440,1.1847,0.7527,0.8215,1.626
13.3460,0.8770,0.5092,1.9622,2.209
13.4030,0.5097,0.2074,3.0954,3.144
13.4050,0.2797,-0.0024,4.0121,4.022
13.4060,0.0317,-0.2138,4.8737,4.879
13.4080,-0.2116,-0.6293,5.6695,5.708
13.4090,-0.3788,-1.2249,6.3845,6.512
13.4110,-0.0810,-1.5302,6.7792,6.950
13.4120,0.7070,-1.5291,6.8706,7.074
13.4660,1.5299,-1.4285,6.6302,6.953
13.4680,2.3807,-1.3392,6.2686,6.838
13.4690,2.7826,-1.3865,5.8205,6.599
13.4710,2.8932,-1.4688,5.2955,6.210
13.4720,2.7670,-1.4667,4.7174,5.662
13.4730,2.3863,-1.4004,4.1668,5.002
13.4970,1.8197,-1.2629,3.5778,4.208
13.4980,1.1587,-1.0533,2.9955,3.380
13.5010,0.4980,-0.7804,2.4404,2.610
13.5360,0.0640,-0.4681,1.8772,1.936
13.5380,-0.2508,-0.2382,1.2739,1.320
13.5390,-0.5348,-0.1271,0.6028,0.816
13.5410,-0.7625,-0.0892,-0.1670,0.786
13.5600,-0.9882,-0.0220,-1.0464,1.439
13.5620,-1.1737,-0.0255,-1.8232,2.169
13.5710,-1.4586,-0.2045,-2.4055,2.821
13.6290,-1.6953,-0.3467,-2.9055,3.382
13.6310,-1.9009,-0.3844,-3.3344,3.857
13.6320,-2.1109,-0.3131,-3.7636,4.327
13.6330,-2.2390,-0.2808,-4.1736,4.745
13.6340,-2.2592,-0.2857,-4.4652,5.012
13.6360,-2.2176,-0.3365,-4.5160,5.042
13.6420,-2.2302,-0.4074,-4.5089,5.047
13.6500,-2.1974,-0.5281,-4.5534,5.083
13.6720,-2.1863,-0.5974,-4.5507,5.084
13.6740,-2.2043,-0.6519,-4.4989,5.052
13.6810,-2.1146,-0.6677,-4.5003,5.017
13.7430,-1.9598,-0.6747,-4.4680,4.925
13.7460,-1.7842,-0.7539,-4.1759,4.603
13.7490,-1.6005,-0.8469,-4.0238,4.413
13.7510,-1.4024,-0.9256,-3.7643,4.122
13.7520,-1.2072,-1.0200,-3.4906,3.832
13.7550,-0.9657,-1.1901,-3.1061,3.464
13.7570,-0.8076,-1.3757,-2.6173,3.065
13.7600,-0.5950,-1.4285,-2.2639,2.742
13.7730,-0.4314,-1.5308,-1.7820,2.388
13.7970,-0.4552,-1.6833,-1.2555,2.149
13.7990,-0.5316,-1.8449,-0.6961,2.042
13.8000,-0.6281,-1.9554,-0.1440,2.059
13.8460,-0.6194,-2.0001,0.2284,2.106
13.8470,-0.3811,-2.0375,0.4699,2.125
13.8490,0.0812,-1.8876,0.5748,1.975
13.8500,0.3935,-1.6650,0.6737,1.839
13.8510,0.0888,-1.6745,0.6124,1.785
13.8900,-0.7522,-1.9834,0.7364,2.245
13.8920,-1.4877,-2.1448,1.0617,2.818
13.8940,-1.6891,-1.8497,1.5558,2.949
13.8960,-1.5221,-1.4015,2.2599,3.064
13.8990,-1.0865,-1.0448,2.8690,3.241
13.9250,-0.4602,-0.8517,3.2706,3.411
13.9270,0.2635,-0.7564,3.8959,3.977
13.9290,0.9256,-0.7427,4.3893,4.547
13.9390,1.4057,-0.8813,3.9476,4.282
13.9610,1.5149,-1.3247,3.5098,4.046
13.9630,1.4414,-1.5617,3.0160,3.690
13.9690,1.1356,-1.5888,2.5265,3.193
14.0480,0.5605,-1.4325,2.1319,2.629
14.0500,-0.1334,-1.2429,1.6780,2.092
14.0520,-0.9471,-0.9893,1.3715,1.938
14.0530,-1.7427,-0.7965,0.9782,2.151
14.0550,-2.4262,-0.3921,0.4015,2.490
14.0560,-3.0773,-0.0506,-0.2759,3.090
14.0580,-3.4714,0.2136,-0.9520,3.606
14.0600,-3.6589,0.3929,-1.6395,4.029
14.0610,-3.6393,0.4935,-2.3358,4.352
14.0690,-3.4145,0.5194,-3.0114,4.582
14.0970,-3.0473,0.4861,-3.5945,4.737
14.0990,-2.5303,0.4656,-4.1178,4.855
14.1000,-1.9644,0.5068,-4.5267,4.960
14.1340,-1.4766,0.5597,-4.8037,5.057
14.1360,-1.1301,0.6343,-5.0374,5.201
14.1390,-0.9330,0.7117,-5.1872,5.318
14.1410,-0.8775,0.7625,-5.3119,5.438
14.1490,-0.8839,0.8527,-5.2291,5.371
14.1770,-0.8091,1.0791,-5.0827,5.259
14.1790,-0.6021,1.3912,-4.8762,5.106
14.1800,-0.2775,1.7282,-4.5871,4.910
14.1880,0.0145,2.0028,-4.1247,4.585
14.2220,0.2852,2.2295,-3.5989,4.243
14.2240,0.4841,2.3438,-2.9713,3.815
14.2250,0.6406,2.3484,-2.4447,3.450
14.2270,0.7916,2.2677,-2.1154,3.201
14.2380,0.9432,2.1634,-1.8055,2.972
14.2470,1.2201,2.1026,-1.4453,2.828
14.2720,1.5208,2.0668,-1.0854,2.786
14.2740,1.8161,2.0646,-0.4908,2.793
14.2770,1.9863,2.0229,0.2637,2.847
14.2870,2.1505,1.9152,1.0123,3.052
14.3210,2.2268,1.7701,1.6314,3.279
14.3230,2.1803,1.5893,2.0932,3.415
14.3240,2.1008,1.4436,2.4427,3.530
14.3260,1.8759,1.2823,2.6671,3.504
14.3380,1.5183,1.1229,2.8101,3.386
14.3460,1.2375,0.9861,2.6787,3.111
14.3670,1.0607,0.9562,2.4064,2.798
14.3680,0.8389,0.8524,2.1786,2.485
14.4420,0.4501,0.6668,2.1264,2.273
14.4440,0.1192,0.4936,2.3489,2.403
14.4460,-0.0762,0.4583,2.7270,2.766
14.4470,-0.0548,0.4900,3.0425,3.082
14.4480,0.0418,0.4687,3.1940,3.229
14.4500,0.1090,0.2716,3.5482,3.560
14.4510,0.1981,-0.1208,3.9729,3.980
14.4530,0.3111,-0.5957,3.9458,4.003
14.4560,0.2867,-1.1031,3.8139,3.981
14.4700,0.2831,-1.5085,3.6008,3.914
14.4940,0.2762,-1.7968,3.2879,3.757
14.4960,0.2958,-1.9546,3.0127,3.603
14.4980,0.3455,-1.9577,2.7227,3.371
14.5390,0.2897,-1.8855,2.4860,3.134
14.5400,0.0332,-1.8032,2.3143,2.934
14.5420,-0.3226,-1.7515,2.0621,2.725
14.5430,-0.7595,-1.7494,1.7846,2.612
14.5460,-1.1357,-1.7328,1.3145,2.454
14.5720,-1.3043,-1.7159,0.8282,2.309
14.5740,-1.2206,-1.5346,-0.1324,1.965
14.5750,-0.9030,-1.4330,-0.8156,1.880
14.5860,-0.5588,-1.4326,-1.5450,2.180
14.6110,-0.3787,-1.5920,-2.2576,2.788
14.6120,-0.2331,-1.8042,-2.9097,3.432
14.6150,-0.1277,-1.8911,-3.4301,3.919
14.7000,-0.0727,-1.8303,-3.8679,4.280
14.7060,-0.0721,-1.7224,-4.1446,4.489
14.7080,-0.2167,-1.5908,-4.3578,4.644
14.7100,-0.5342,-1.4069,-4.4615,4.708
14.7120,-0.9984,-1.1024,-4.4264,4.670
14.7150,-1.3405,-0.7906,-4.3134,4.586
14.7170,-1.4856,-0.5503,-3.9286,4.236
14.7210,-1.5731,-0.3958,-3.2855,3.664
14.7240,-1.4433,-0.1644,-2.5031,2.894
14.7260,-0.9362,0.0657,-1.2848,1.591
14.7280,-0.7011,-0.0688,-0.5260,0.879
14.7370,-0.8841,-0.4889,-0.6868,1.222
14.7460,-1.0782,-0.8507,-0.8515,1.616
14.7860,-1.1068,-0.9795,-1.2054,1.907
14.7890,-1.0006,-0.8799,-1.6596,2.128
14.7910,-0.7763,-0.6330,-1.8815,2.132
14.7930,-0.7032,-0.3816,-1.8484,2.014
14.7960,-0.8311,-0.3120,-1.5428,1.780
14.8070,-1.0612,-0.3544,-0.9491,1.467
14.8750,-1.4156,-0.4042,-0.3104,1.505
14.8810,-1.5770,-0.4564,0.1270,1.647
14.8830,-1.4983,-0.4090,0.4984,1.631
14.8850,-1.3905,-0.4043,0.5302,1.542
14.8870,-1.2884,-0.4522,0.0515,1.366
14.8900,-1.2651,-0.5488,-0.5514,1.485
14.8920,-1.5887,-0.7502,-0.8488,1.951
14.8940,-2.1487,-0.9803,-0.6756,2.456
14.8960,-2.5158,-1.0920,-0.2722,2.756
14.9560,-2.5470,-0.8958,0.2796,2.714
14.9580,-2.3731,-0.6529,1.1284,2.708
14.9600,-2.1842,-0.6520,1.8672,2.947
14.9610,-1.7609,-0.8087,2.1050,2.861
14.9630,-1.1853,-0.8330,2.0231,2.488
14.9640,-0.6679,-0.8172,1.6253,1.938
14.9700,-0.3977,-0.9031,0.9710,1.384
14.9730,-0.2523,-1.0117,0.4021,1.118
15.0050,-0.1696,-1.0308,-0.0876,1.048
15.0080,-0.1557,-0.9808,-0.5021,1.113
15.0100,-0.3350,-0.8393,-0.8348,1.230
15.0130,-0.6349,-0.7244,-1.1484,1.499
15.1110,-0.9246,-0.5781,-1.4686,1.829
15.1130,-1.1010,-0.4304,-1.7575,2.118
15.1140,-1.2138,-0.2990,-1.9022,2.276
15.1160,-1.2956,-0.2797,-1.8532,2.278
15.1170,-1.1510,-0.2642,-1.6617,2.039
15.1190,-1.0346,-0.3504,-1.3517,1.738
15.1220,-0.9360,-0.5370,-1.5058,1.852
15.1230,-0.7724,-0.8652,-1.9164,2.240
15.1250,-0.5908,-1.0929,-2.2145,2.539
15.1260,-0.4654,-1.1968,-2.4172,2.737
15.1280,-0.3219,-1.1934,-2.2971,2.609
15.1670,-0.1083,-1.0609,-2.0390,2.301
15.1690,0.2369,-1.0948,-2.0472,2.334
15.1700,0.0988,-0.4749,-1.7238,1.791
15.1720,-0.1294,-0.2477,-2.4687,2.484
15.1730,-0.2559,-0.2978,-2.5086,2.539
15.1820,-0.2380,-0.2076,-2.5043,2.524
15.2020,-0.2061,0.2846,-2.7814,2.804
15.2040,-1.3536,-0.0443,-1.4519,1.985
15.2120,-0.3530,0.5077,-0.3856,0.729
15.2710,0.1740,0.8190,-0.3946,0.926
15.2730,0.6876,1.0047,-0.8879,1.507
15.2740,0.6684,0.7630,-1.3256,1.669
15.2750,0.6149,0.6097,-1.4170,1.661
15.2770,0.6641,0.7328,-0.9852,1.396
15.2780,1.0558,0.9995,-1.0705,1.805
15.2820,1.5405,1.3295,-0.9637,2.252
15.3360,1.6207,1.4214,-0.3070,2.177
15.3380,1.2268,1.1962,0.6909,1.848
15.3390,0.6507,0.8785,1.5802,1.922
15.3400,-0.0653,0.4288,2.0826,2.127
15.3420,0.7652,1.1036,2.7199,3.033
15.3430,1.3039,1.2847,2.9761,3.494
15.3660,1.2696,0.6573,2.5625,2.934
15.3680,1.4483,0.5058,2.1925,2.676
15.3710,1.2242,0.2207,2.0409,2.390
15.3810,1.0930,0.0127,2.6837,2.898
15.4400,0.9359,-0.2456,3.7875,3.909
15.4410,0.7017,-0.6149,4.5585,4.653
15.4420,0.6354,-0.8596,4.8405,4.957
15.4430,0.6035,-0.9482,4.6320,4.766
15.4450,0.7455,-0.8963,4.1377,4.299
15.4470,1.1375,-0.9951,3.2599,3.593
15.4500,1.2559,-1.3133,2.1206,2.793
15.4880,1.0804,-1.6817,0.8951,2.190
15.4900,0.8907,-1.8537,-0.0294,2.057
15.4920,0.9124,-1.6863,-0.4589,1.971
15.4940,0.6398,-1.4979,-0.6513,1.754
15.5190,0.6243,-1.1014,-0.8937,1.550
15.5210,0.4414,-0.8812,-1.0111,1.412
15.5220,0.3507,-0.7513,-1.2178,1.473
15.5300,0.2633,-0.6503,-1.2543,1.437
15.5870,0.2403,-0.6347,-1.1510,1.336
15.5900,0.2401,-0.6589,-1.1042,1.308
15.5940,0.3557,-0.5992,-1.2345,1.418
15.5990,0.4810,-0.5535,-1.4820,1.653
15.6030,0.5887,-0.5048,-1.8927,2.045
15.6080,0.7085,-0.4107,-2.3092,2.450
15.6120,0.7949,-0.2949,-2.5539,2.691
15.6160,0.8702,-0.1965,-2.8575,2.993
15.6220,0.8362,-0.1495,-3.0883,3.203
15.6310,0.7459,-0.0954,-3.2274,3.314
15.6610,0.8190,0.0735,-3.2006,3.305
15.6630,0.9126,0.2872,-2.9037,3.057
15.6640,0.8844,0.3904,-2.5471,2.724
15.7380,0.8523,0.4107,-2.2868,2.475
15.7390,0.8182,0.4599,-1.9870,2.198
15.7410,0.7905,0.4982,-1.9309,2.145
15.7430,0.7672,0.5098,-1.8876,2.100
15.7440,0.7958,0.5577,-1.8474,2.087
15.7450,0.8435,0.5173,-1.8120,2.065
15.7470,0.8891,0.4359,-1.8226,2.074
15.7490,0.8386,0.3326,-1.6818,1.908
15.7500,0.6871,0.1745,-1.5475,1.702
15.7770,0.5019,0.0498,-1.1556,1.261
15.7790,0.3849,0.0521,-0.6688,0.773
15.7830,0.1810,0.0630,-0.0306,0.194
15.8340,-0.0482,0.0063,0.3264,0.330
15.8390,-0.2078,-0.1198,0.3435,0.419
15.8400,-0.3058,-0.1979,0.2327,0.432
15.8410,-0.4632,-0.4222,0.5339,0.823
15.8420,-0.6927,-0.5087,0.7326,1.129
15.8430,-0.7822,-0.5105,0.6750,1.152
15.8850,-0.6209,-0.3922,0.3614,0.819
15.8860,-0.3687,-0.2690,0.0674,0.461
15.8880,-0.5601,-0.4649,0.1927,0.753
15.8900,-0.8541,-0.7759,0.6010,1.301
15.8920,-1.1719,-1.1707,0.9620,1.916
15.8990,-1.3726,-1.6699,1.3577,2.553
15.9080,-1.5631,-2.0317,2.1636,3.354
15.9370,-1.7491,-2.3493,2.9928,4.188
15.9390,-0.7614,-2.2098,2.7575,3.615
15.9400,0.6892,-1.8852,1.9470,2.796
15.9990,-0.2290,-1.9198,3.5146,4.011
16.0000,-1.2937,-1.6284,4.2473,4.729
16.0020,-1.2628,-0.8085,3.4090,3.724
16.0030,-0.8082,0.1145,2.2720,2.414
16.0040,-0.1877,0.4953,1.5584,1.646
16.0050,-0.1007,-0.0567,1.1019,1.108
16.0100,-0.9965,-0.8975,0.3745,1.392
16.0190,-1.4441,-1.1290,-0.4214,1.881
16.0290,-1.3069,-0.8322,-1.2545,1.994
16.0510,-1.0696,-0.6078,-1.9882,2.338
16.0530,-1.4784,-0.4653,-2.0641,2.581
